time,seconds_elapsed,rotationRateX,rotationRateY,rotationRateZ,gravityX,gravityY,gravityZ,accelerationX,accelerationY,accelerationZ,quaternionW,quaternionX,quaternionY,quaternionZ
1681238789706295600,0.272295654296875,-0.17955411970615387,-0.06663449108600616,-0.01010182872414589,-0.05046747997403145,-0.08634620904922485,-0.9949861168861389,0.022925294935703278,-0.0779758095741272,-0.047616422176361084,0.9987458952881711,0.043227315461903545,-0.025265424546695513,-9.545849557319151e-18
1681238789716272600,0.282272705078125,0.0003336179070174694,-0.041536588221788406,-0.013143157586455345,-0.050990164279937744,-0.08550398796796799,-0.9950321912765503,0.004725448787212372,0.015008270740509033,0.03201955556869507,0.9987574231923553,0.042803591694010906,-0.025529465745073556,-0.00006218282297494018
1681238789726249500,0.29224951171875,0.1539052277803421,-0.019697068259119987,-0.02853701263666153,-0.05129537358880043,-0.08629478514194489,-0.9949482679367065,-0.012272808700799942,0.08779002726078033,0.04565322399139404,0.9987363935620001,0.0431976665889391,-0.025687395108593993,-0.00016782035831456528
1681238789736226600,0.3022265625,0.2640748620033264,-0.0037833498790860176,-0.028998803347349167,-0.05140819400548935,-0.08841492980718613,-0.9947562217712402,-0.02429072931408882,0.10974659770727158,0.01001507043838501,0.9986882785356372,0.04425805477969214,-0.025750706319175025,-0.0002899335918247749
1681238789746203600,0.31220361328125,0.27551957964897156,0.030620642006397247,-0.014401801861822605,-0.05120863765478134,-0.09108029305934906,-0.9945260286331177,-0.02491753175854683,0.08522079885005951,0.013157069683074951,0.9986306610280399,0.045593138276001616,-0.02565622653642124,-0.0003679518680514638
1681238789756179500,0.322179443359375,0.1697140634059906,0.0693477988243103,0.0006551784463226795,-0.050690531730651855,-0.0932716578245163,-0.994349479675293,-0.017134856432676315,0.039850518107414246,0.03849315643310547,0.9985863930822728,0.046692555597946814,-0.025398225804990262,-0.00036530991568273197
1681238789766156800,0.33215673828125,0.014065874740481377,0.08298861980438232,0.009846946224570274,-0.0498923622071743,-0.09431625157594681,-0.9942913055419922,-0.01709378883242607,-0.012556418776512146,0.04197502136230469,0.9985718623446372,0.04721768577277127,-0.024996756646684076,-0.000315047258214137
1681238789776133600,0.342133544921875,-0.1410060077905655,0.05579720437526703,0.015244107693433762,-0.04909937083721161,-0.09388326108455658,-0.994371771812439,-0.016772888600826263,-0.06137503683567047,0.024111151695251465,0.9985920283394171,0.04700181853614402,-0.02459575928284428,-0.00024346311197003223
1681238789786110700,0.35211083984375,-0.24049174785614014,0.007865369319915771,0.019301418215036392,-0.048708412796258926,-0.09205415844917297,-0.9945619702339172,-0.003095243126153946,-0.09424050897359848,-0.010610699653625488,0.9986396008928654,0.046085402650128844,-0.024395651347051406,-0.00017918687122413829
1681238789796087600,0.362087646484375,-0.2317131757736206,-0.025503240525722504,0.022686827927827835,-0.04883051663637161,-0.08958995342254639,-0.9947810173034668,0.01397937536239624,-0.09267640113830566,-0.0338902473449707,0.9986944548297056,0.044851006918890456,-0.02445181653779293,-0.00010332944654703747
1681238789806064600,0.372064697265625,-0.11960264295339584,-0.04192008450627327,0.014905786141753197,-0.049260254949331284,-0.08762717247009277,-0.994934618473053,0.02225213497877121,-0.05823170393705368,-0.035628676414489746,0.9987330044508256,0.04386830728802406,-0.02466290627281908,-0.00003489572887726841
1681238789816041500,0.38204150390625,0.03292138874530792,-0.029261812567710876,-0.002858296502381563,-0.04971342161297798,-0.08699823170900345,-0.9949672818183899,0.01348898932337761,-0.0030134841799736023,-0.024060428142547607,0.9987411573982192,0.0435536277936285,-0.024888594719741173,-0.000012680301151443157
1681238789826017500,0.392017578125,0.1571492999792099,-0.0037544285878539085,-0.013311287388205528,-0.049943216145038605,-0.0878215804696083,-0.9948834180831909,-0.004362881183624268,0.05564068257808685,-0.0014238953590393066,0.9987201425806672,0.043966032736080504,-0.025005417951429177,-0.000041095877032933614
1681238789835994400,0.401994384765625,0.24154514074325562,0.03369041532278061,-0.015248737297952175,-0.04983345791697502,-0.08979985862970352,-0.9947123527526855,-0.01707640290260315,0.09041009843349457,0.023414134979248047,0.9986772264141356,0.04495725659308891,-0.02495359678000885,-0.00008585978605316481
1681238789845971700,0.4119716796875,0.23993337154388428,0.07576575130224228,-0.013786078430712223,-0.049301475286483765,-0.09227484464645386,-0.9945123195648193,-0.021255232393741608,0.0830126404762268,0.041372060775756836,0.9986272475582433,0.04619794106801356,-0.02469005431249178,-0.00011738210246391095
1681238789855948800,0.42194873046875,0.16487963497638702,0.08748099207878113,-0.013642268255352974,-0.04850998520851135,-0.09445241838693619,-0.9943467974662781,-0.016782443970441818,0.051544591784477234,0.031501948833465576,0.9985857802070561,0.04728962341274462,-0.02429609667701836,-0.00014262201739926128
1681238789865925600,0.431925537109375,0.03854162245988846,0.0734410285949707,-0.008199382573366165,-0.04768436402082443,-0.09568054229021072,-0.9942693114280701,-0.00634707510471344,0.01203174889087677,0.01756948232650757,0.9985663512508478,0.04790503919196888,-0.02388427059080388,-0.00016378631432177373
1681238789875902700,0.44190283203125,-0.09465424716472626,0.04289376735687256,-0.00654422864317894,-0.047044575214385986,-0.09554799646139145,-0.9943125247955322,0.010225046426057816,-0.0404994934797287,0.0047800540924072266,0.9985772430998499,0.04783760858325396,-0.023564849532831236,-0.00018886654802742475
1681238789885878500,0.45187841796875,-0.19090089201927185,0.015034971758723259,-0.0032802580390125513,-0.04669234901666641,-0.09418938308954239,-0.9944587349891663,0.02046242356300354,-0.08014239370822906,-0.012956976890563965,0.9986137884737625,0.04715469207284203,-0.023389413991883785,-0.00022940026146490438
1681238789895855600,0.461855712890625,-0.2311791628599167,0.009768996387720108,-0.0016827440122142434,-0.046541135758161545,-0.0920317992568016,-0.9946678280830383,0.020845267921686172,-0.08507707715034485,-0.01914137601852417,0.9986661361438951,0.04607111113223851,-0.02331400280510055,-0.00026776735567168674
1681238789905832400,0.47183251953125,-0.20973676443099976,0.013117017224431038,0.0010575653286650777,-0.04646648094058037,-0.0896923616528511,-0.9948849678039551,0.013736307621002197,-0.05981338024139404,-0.0059542059898376465,0.9987205202729632,0.04489691437073193,-0.023275963140237162,-0.0002882695897564637
1681238789915809500,0.4818095703125,-0.16699808835983276,0.01644490286707878,-0.001752868527546525,-0.04642277583479881,-0.08756852895021439,-0.9950762391090393,0.0071160681545734406,-0.027253977954387665,0.008214056491851807,0.9987683349416893,0.043831102438916685,-0.023253498986654225,-0.000307321355523421
1681238789925786400,0.491786376953125,-0.07409940659999847,0.016871167346835136,-0.0012179557234048843,-0.04634985700249672,-0.08617616444826126,-0.9952011704444885,0.0017941296100616455,0.003397122025489807,0.0152207612991333,0.9987995551502079,0.0431324083342355,-0.023216643818722456,-0.00032098302164490424
1681238789935763700,0.501763671875,-0.011931637302041054,0.007942920550704002,0.004111029207706451,-0.046293940395116806,-0.08570360392332077,-0.995244562625885,0.00018181651830673218,0.028437264263629913,0.020711541175842285,0.9988103966633067,0.042895729013043685,-0.023187691856888484,-0.0003062735990701627
1681238789945740500,0.511740478515625,0.02107604779303074,-0.006461798213422298,0.005678133107721806,-0.046325117349624634,-0.08575382083654404,-0.9952387809753418,-0.000580471009016037,0.038008950650691986,0.012801706790924072,0.9988090557253984,0.04292149470966974,-0.023202272790374193,-0.0002814850237963028
1681238789955716600,0.521716552734375,0.021963946521282196,-0.010971062816679478,0.011251330375671387,-0.04638081416487694,-0.08615797758102417,-0.9952012896537781,0.000909559428691864,0.028433866798877716,0.0067064762115478516,0.9987996481043178,0.0431251952677227,-0.02322861003165095,-0.00023932651137879393
1681238789965713000,0.531712890625,0.004391576163470745,-0.005354882217943668,0.014803504571318626,-0.04637213423848152,-0.08652068674564362,-0.9951702356338501,0.001633431762456894,0.007709167897701263,0.005485177040100098,0.9987918749898421,0.043312670902659,-0.02321411247317501,-2.2438035121664424e-17
1681238789975690000,0.54168994140625,0.001345452619716525,-0.000789424404501915,0.0143401138484478,-0.04629763960838318,-0.08681157976388931,-0.9951483607292175,-0.000470481812953949,-0.007075615227222443,0.0008704066276550293,0.9987864309379332,0.04346020447637723,-0.023173808963274947,0.00007210148122470446
1681238789985667000,0.5516669921875,0.011609409004449844,0.0011597424745559692,0.009171783924102783,-0.04622267559170723,-0.08706852048635483,-0.995129406452179,-0.001293126493692398,-0.004590906202793121,-0.003756701946258545,0.9987815981522528,0.04359037768428055,-0.023133855310869304,0.00013005456922531033
1681238789995644000,0.561643798828125,0.04082375392317772,0.002284395508468151,0.006236182525753975,-0.04616712033748627,-0.08741932362318039,-0.9951012134552002,-0.004003707319498062,0.006349503993988037,-0.013687849044799805,0.9987745665257964,0.04376724622580333,-0.02310439227746057,0.00017093603941636268
1681238790005621000,0.57162109375,0.060307539999485016,-0.0010973932221531868,0.006290893070399761,-0.0461718887090683,-0.08792909234762192,-0.9950560927391052,-0.005540080368518829,0.01938673108816147,-0.017639219760894775,0.9987633073483736,0.0440238474304607,-0.02310526158379181,0.00021025931539036405
1681238790015596800,0.5815966796875,0.06604371964931488,0.004968222230672836,0.007976674474775791,-0.04618202894926071,-0.08838760852813721,-0.995015025138855,-0.0052552781999111176,0.01871611177921295,-0.01504051685333252,0.9987529881283723,0.044254852768701766,-0.023108605896362423,0.00025363759704025645
1681238790025573000,0.591572998046875,0.05621888488531113,0.017320869490504265,0.009053506888449192,-0.04609841853380203,-0.08878830820322037,-0.9949831962585449,-0.003782495856285095,0.010022573173046112,-0.004543781280517578,0.9987450511763606,0.04445690730701183,-0.02306473812911027,0.0003017747648382939
1681238790035550200,0.60155029296875,0.03602573275566101,0.0270488653331995,0.014227761887013912,-0.045888833701610565,-0.08905679732561111,-0.9949688911437988,-0.0061283111572265625,0.0018834620714187622,0.007145404815673828,0.9987413916536834,0.04459298228560779,-0.02295687830623703,0.00036847827624084985
1681238790045527000,0.611527099609375,0.018390081822872162,0.025066301226615906,0.01750042289495468,-0.04563101381063461,-0.08923353999853134,-0.9949648976325989,-0.005806297063827515,-0.00793430209159851,0.014618217945098877,0.9987404265607766,0.04468357559243685,-0.022823652817399714,0.0004610549073612792
1681238790055504100,0.621504150390625,0.006873509380966425,0.0198502317070961,0.021605152636766434,-0.04544886201620102,-0.08942488580942154,-0.9949560761451721,-0.00311979278922081,-0.012671537697315216,0.02162843942642212,0.9987381062345525,0.044781773054957986,-0.022727853406266773,0.0005640299509541136
1681238790065481000,0.63148095703125,-0.007794549223035574,0.015011269599199295,0.02190261147916317,-0.045350827276706696,-0.08944275230169296,-0.9949589371681213,-0.00013555586338043213,-0.014240585267543793,0.014276564121246338,0.9987387837566136,0.044793130780420076,-0.02267386466742925,0.0006729756934952279
1681238790075458000,0.6414580078125,-0.009805236011743546,0.012579270638525486,0.021745217964053154,-0.045374490320682526,-0.0891207680106163,-0.9949867725372314,-0.0012562982738018036,-0.011953316628932953,0.005866289138793945,0.9987456377195698,0.04463425354761252,-0.02268050221544646,0.0007884704053514615
1681238790085433900,0.651433837890625,-0.009597841650247574,0.015536977909505367,0.021709764376282692,-0.04543611779808998,-0.08854229003190994,-0.9950355887413025,-0.0008437223732471466,-0.01150946319103241,0.0005440115928649902,0.9987577460654538,0.04434672990503543,-0.02270623660078426,0.0009026621589374438
1681238790095411000,0.661410888671875,-0.005563686136156321,0.02003931812942028,0.0182186271995306,-0.04545280337333679,-0.0880415141582489,-0.9950792789459229,-0.00024719908833503723,-0.011811874806880951,-0.0013196468353271484,0.9987685569589428,0.04409801149286695,-0.02270980013118706,0.001010629241356452
1681238790105388000,0.671387939453125,-0.003503564279526472,0.020034365355968475,0.013149182312190533,-0.04539371281862259,-0.08779038488864899,-0.9951041340827942,0.0012195855379104614,-0.005471214652061462,-0.0012337565422058105,0.9987747135422836,0.04397383996773702,-0.02267661148794784,0.001092247051771713
1681238790115365000,0.681365234375,0.006003654096275568,0.02048523724079132,0.013516964390873909,-0.045409515500068665,-0.08779054135084152,-0.9951034188270569,0.0015558227896690369,0.00260084867477417,0.0024123787879943848,0.998774461691514,0.04397539798126438,-0.022681693554699792,0.0011565862614868459
1681238790125342000,0.691342041015625,0.023043490946292877,0.024645842611789703,0.01369399856775999,-0.04538600891828537,-0.0881262868642807,-0.9950748085975647,0.0007388591766357422,0.0037453100085258484,0.0016055703163146973,0.998767205444367,0.044145414465090675,-0.02266670895461981,0.0012286408373386008
1681238790135319000,0.701319091796875,0.028742656111717224,0.029592394828796387,0.008902705274522305,-0.04524607956409454,-0.08870696276426315,-0.9950295686721802,-0.0010947957634925842,0.0027238130569458008,0.0016061067581176758,0.9987558553976359,0.04443786475656476,-0.02259392115133067,0.001287834786953833
1681238790145296100,0.711296142578125,0.015390198677778244,0.03010159358382225,0.00986036192625761,-0.04496137052774429,-0.08922981470823288,-0.9949957132339478,0.00039051473140716553,0.004467368125915527,0.005859971046447754,0.998747315400016,0.04470109168458369,-0.0224486924943556,0.001344803825599674
1681238790155272000,0.72127197265625,0.014027992263436317,0.02455742284655571,0.00964970514178276,-0.04475218057632446,-0.0896073505282402,-0.9949712157249451,0.00013555586338043213,0.0008013322949409485,0.010046958923339844,0.9987410858394229,0.04489149178892323,-0.022341317819203142,0.001401126911607983
1681238790165249000,0.7312490234375,0.002592411357909441,0.013226259499788284,0.009592796675860882,-0.04461565986275673,-0.0898788571357727,-0.9949528574943542,0.0023031122982501984,-0.00632767379283905,0.012988805770874023,0.9987364241195386,0.045028667507849465,-0.02227058208463647,0.0014521679749467462
1681238790175225900,0.741225830078125,-0.012482412159442902,0.006045578047633171,0.010263380594551563,-0.04455769434571266,-0.08999375998973846,-0.9949451088905334,0.0057241469621658325,-0.009340822696685791,0.006633341312408447,0.9987344302735207,0.04508729150447021,-0.02223937962080216,0.00149958461943227
1681238790185203200,0.751203125,-0.028721902519464493,0.004530453123152256,0.009585040621459484,-0.04451064020395279,-0.08984106034040451,-0.9949610233306885,0.00540243461728096,-0.005968734622001648,0.0004999637603759766,0.9987383353970316,0.045011728233490575,-0.022213627763412735,0.001548894831120621
1681238790195180000,0.761179931640625,-0.03404422849416733,0.007065249606966972,0.013130241073668003,-0.04446570202708244,-0.08946693688631058,-0.9949967265129089,0.003602735698223114,-0.006022438406944275,0.00015419721603393555,0.9987471457461137,0.044825124598057126,-0.022188943789045273,0.001599712165292624
1681238790205157000,0.7711572265625,-0.051068320870399475,0.015197157859802246,0.006344389636069536,-0.04437590017914772,-0.08896540850400925,-0.9950457215309143,0.0021854154765605927,-0.008629679679870605,0.004475593566894531,0.998759409274019,0.04457442000263416,-0.02214210876204172,0.001644665009475148
1681238790215133000,0.7811328125,-0.06841614842414856,0.021208178251981735,0.009609957225620747,-0.04425053298473358,-0.08832471817731857,-0.9951083660125732,-0.0014799907803535461,-0.009880729019641876,0.005789518356323242,0.9987749768955325,0.04425369673929581,-0.022077893866440906,0.001681636145535494
1681238790225110000,0.791110107421875,-0.06763787567615509,0.01814325340092182,0.00922924280166626,-0.04406534135341644,-0.08757898211479187,-0.995182454586029,-0.004915300756692886,-0.011587753891944885,0.009251117706298828,0.9987934982282364,0.043880403151772766,-0.02198340361095776,0.0017271920659471614
1681238790235086800,0.8010869140625,-0.06746769696474075,0.012624384835362434,0.013516398146748543,-0.04394707456231117,-0.08694017678499222,-0.9952437281608582,-0.0013714618980884552,-0.011875614523887634,0.007511794567108154,0.9988086823497193,0.043561035252179255,-0.021922053498383262,0.0017814032319875275
1681238790245064000,0.81106396484375,-0.07440180331468582,0.00697076041251421,0.015901843085885048,-0.04383919760584831,-0.08638894557952881,-0.9952964782714844,0.00039749592542648315,-0.005743496119976044,0.002223968505859375,0.9988218212026556,0.04328595567165285,-0.021865218072844764,0.0018514645881836586
1681238790255041000,0.821041015625,-0.0601419098675251,0.011060576885938644,0.023579735308885574,-0.043652646243572235,-0.08592391014099121,-0.9953449368476868,0.0025302767753601074,-0.004881016910076141,0.0033863186836242676,0.998833709799086,0.04305438389521495,-0.021768219266510017,0.0019392297256238518
1681238790265018000,0.83101806640625,-0.033675115555524826,0.012992007657885551,0.028055261820554733,-0.04345124587416649,-0.0856386348605156,-0.995378315448761,0.0005283430218696594,-0.007149934768676758,0.007264912128448486,0.9988417976616665,0.04291354484399566,-0.02166250977103772,0.0020553758680195142
1681238790274995200,0.8409951171875,-0.015491051599383354,0.006148749031126499,0.024740157648921013,-0.04332021623849869,-0.08553555607795715,-0.995392918586731,0.001343362033367157,-0.005650833249092102,-0.00025832653045654297,0.9988452067535715,0.04286433017239998,-0.02159163537863532,0.0021791407429184386
1681238790284971000,0.850970947265625,0.01800808683037758,-0.00018802937120199203,0.021258290857076645,-0.043279390782117844,-0.0857246145606041,-0.9953784346580505,0.0014703795313835144,0.00500575453042984,-0.0012188553810119629,0.9988412592906691,0.04296151845857331,-0.021566215416460956,0.002292036656759629
1681238790294948000,0.860947998046875,0.04755052924156189,-0.0012482339516282082,0.02466793730854988,-0.04337692633271217,-0.08623640239238739,-0.9953299760818481,0.0025902539491653442,0.017297327518463135,0.0010977983474731445,0.9988288803099025,0.04322095089719886,-0.02160949997732945,0.00241249337690333
1681238790304925000,0.870925048828125,0.05919773131608963,0.0005648992955684662,0.024920737370848656,-0.04353291913866997,-0.0869777575135231,-0.995258629322052,0.00392116978764534,0.02055637538433075,-0.006877601146697998,0.9988108038896613,0.04359564257668612,-0.02168181644356719,0.0025329653412550705
1681238790314902000,0.880902099609375,0.06781891733407974,0.003780666273087263,0.024967875331640244,-0.04357625171542168,-0.0877661406993866,-0.995187520980835,0.001492578536272049,0.021588899195194244,-0.005575418472290039,0.998792654412679,0.04399393982535935,-0.02169721976693667,0.002661788866567474
1681238790324878800,0.89087890625,0.08647582679986954,0.008981127291917801,0.029584266245365143,-0.043535713106393814,-0.08860945701599121,-0.9951145648956299,-0.0010198839008808136,0.01893794536590576,0.0003025531768798828,0.9987740386430161,0.04442006668391461,-0.021669622022783924,0.0028095362577263807
1681238790334856000,0.90085595703125,0.0810118168592453,0.007118512876331806,0.024380981922149658,-0.043426766991615295,-0.08947466313838959,-0.9950419068336487,-0.0005337335169315338,0.007458798587322235,-0.0012502074241638184,0.9987554476816991,0.04485699074708193,-0.021607759573701323,0.002954204429199244
1681238790344832000,0.91083203125,0.08171778917312622,0.008275815285742283,0.02292361669242382,-0.04336989298462868,-0.09030455350875854,-0.9949694275856018,-0.0006821602582931519,0.0034974366426467896,-0.0010785460472106934,0.9987368510653054,0.04527606230389016,-0.02157243049811053,0.003086972555055353
1681238790354809000,0.92080908203125,0.09461840987205505,0.013408792205154896,0.026720484718680382,-0.04325671121478081,-0.09119174629449844,-0.9948934316635132,-0.00253484770655632,0.0038658231496810913,0.0017751455307006836,0.9987174084192555,0.045723826877913376,-0.021508602945512316,0.003222357538781975
1681238790364786000,0.930785888671875,0.09273718297481537,0.01623605750501156,0.029068943113088608,-0.04311493784189224,-0.09195702522993088,-0.9948291182518005,-0.0012270361185073853,0.0027237460017204285,0.003328263759613037,0.998700727748774,0.04611077366246289,-0.021429630594536873,0.003376234355623657
1681238790374763000,0.940762939453125,0.10056421160697937,0.02003186196088791,0.02956535667181015,-0.04292640835046768,-0.09256909787654877,-0.9947805404663086,-0.00010330602526664734,0.0026339292526245117,0.0033712387084960938,0.998687960017123,0.046420911762136315,-0.02132694630421071,0.003538067958204975
1681238790384740000,0.950739990234375,0.09515862911939621,0.033643435686826706,0.027525225654244423,-0.042629122734069824,-0.09318416565656662,-0.9947358965873718,0.000316571444272995,0.0033405423164367676,0.009033381938934326,0.998676231535995,0.04673220535368028,-0.02116982546642118,0.0036967878237966385
1681238790394717000,0.960717041015625,0.088225357234478,0.05172949656844139,0.019189530983567238,-0.04222142696380615,-0.09369917958974838,-0.9947049021720886,-0.0009761378169059753,0.00043758004903793335,0.012527167797088623,0.998667925711761,0.04699257615456864,-0.020958382569340545,0.0038356742356651418
1681238790404694000,0.970694091796875,0.10063126683235168,0.08886514604091644,0.010606412775814533,-0.0415978841483593,-0.09431244432926178,-0.9946731925010681,-0.004331003874540329,0.0005778297781944275,0.019804418087005615,0.9986596070620668,0.047300920224155746,-0.020640299646662138,0.0039387763029810965
1681238790414670000,0.980670166015625,0.11181813478469849,0.14801661670207977,0.006950957700610161,-0.04047810658812523,-0.09520550817251205,-0.9946343302726746,-0.014163549989461899,0.002065986394882202,0.01776665449142456,0.9986495601462024,0.04774790671726746,-0.020074279140621952,0.004018668996446506
1681238790424647200,0.990647216796875,0.12638872861862183,0.20409825444221497,0.00882637221366167,-0.03878486901521683,-0.09626530110836029,-0.9945997595787048,-0.0338621512055397,0.0025764629244804382,-0.00845193862915039,0.9986405540222046,0.048277275339374766,-0.019220143174644638,0.004110006239915909
1681238790434624000,1.0006240234375,0.1458476483821869,0.22795911133289337,0.014727404341101646,-0.03675157576799393,-0.09751642495393753,-0.9945551156997681,-0.0489722304046154,0.0024085193872451782,-0.033322691917419434,0.9986288045720523,0.04890251560405436,-0.018193095632952547,0.004245980411448491
1681238790444601000,1.01060107421875,0.15675534307956696,0.22667568922042847,0.004789519589394331,-0.03463052585721016,-0.09889530390501022,-0.9944950938224792,-0.04067152366042137,0.011920332908630371,-0.05428725481033325,0.998613258147723,0.049591359712090985,-0.01712195595234683,0.0043767885478383
1681238790454578000,1.020577880859375,0.15278856456279755,0.22457684576511383,-0.0222221240401268,-0.03247922658920288,-0.10040842741727829,-0.9944160580635071,-0.01979731023311615,0.031026840209960938,-0.08048933744430542,0.9985932996118542,0.050345898285159785,-0.01603974922781729,0.004417962676206278
1681238790464555000,1.030554931640625,0.09671604633331299,0.25916099548339844,-0.10858627408742905,-0.030106261372566223,-0.1016189381480217,-0.9943677186965942,0.0058601126074790955,0.030009567737579346,-0.08352839946746826,0.9985822415544221,0.050943807794037684,-0.014861284350234049,0.004179423465802081
1681238790474530800,1.04053076171875,-0.08099163323640823,0.31721657514572144,-0.19210781157016754,-0.027203915640711784,-0.10182371735572815,-0.994430422782898,0.008023686707019806,0.004716910421848297,-0.04188549518585205,0.9986006124889102,0.05103025402775096,-0.013442411841557025,0.003495119333740906
1681238790484508200,1.050508056640625,-0.3883446156978607,0.3692553639411926,-0.22334925830364227,-0.023708423599600792,-0.09956485778093338,-0.994748592376709,-0.027881471440196037,-0.04040388762950897,-0.020052433013916016,0.9986832046968179,0.04987769215289077,-0.01174402970798134,0.0025190949424224
1681238790494485000,1.060485107421875,-0.7790759205818176,0.40090304613113403,-0.2493038922548294,-0.019851665943861008,-0.0938345193862915,-0.9953898787498474,-0.06034845858812332,-0.12262653559446335,-0.024400770664215088,0.9988458647154224,0.04698552027994359,-0.009870426706607423,0.0014216800991535058
1681238790504462000,1.070462158203125,-1.2306801080703735,0.43423065543174744,-0.289580762386322,-0.015599565580487251,-0.08392667770385742,-0.9963498115539551,-0.06403598189353943,-0.20608174800872803,0.026012897491455078,0.9990871077683082,0.04200254508941613,-0.007802270711873464,0.00011034650639424493
1681238790514439200,1.080439208984375,-1.737371563911438,0.47509393095970154,-0.2609288692474365,-0.010866694152355194,-0.06925021857023239,-0.9975401163101196,-0.06692254543304443,-0.26688551902770996,0.07201826572418213,0.9993841461591725,0.034639718689037875,-0.005479222334920446,-0.0012269380895712457
1681238790524416000,1.090416015625,-2.5688750743865967,-0.21839365363121033,-0.20755471289157867,-0.008192555047571659,-0.047949519008398056,-0.9988161325454712,-0.08111706376075745,-0.3066340982913971,0.08254110813140869,0.9997012614069525,0.023972038626990017,-0.004154540239656662,-0.0023786623091064632
1681238790534393000,1.10039306640625,-2.9990296363830566,-0.4161860942840576,-0.12415888905525208,-0.012185902334749699,-0.01986008882522583,-0.9997285008430481,-0.0705166682600975,-0.3077917695045471,0.0694916844367981,0.9999265292280834,0.009910202552798062,-0.006126673467957298,-0.003357376238543536
1681238790544369000,1.110368896484375,-3.066842555999756,-0.17013472318649292,-0.029169712215662003,-0.015001562424004078,0.010536173358559608,-0.9998319745063782,-0.044873856008052826,-0.2918013036251068,0.11126691102981567,0.9999507248192779,-0.005296914219366061,-0.007480923255260916,-0.0038185890154027475
1681238790554346000,1.120345947265625,-2.7927515506744385,-0.3620900511741638,-0.07715801149606705,-0.017374403774738312,0.04006653651595116,-0.9990459680557251,-0.07481913268566132,-0.2382933348417282,0.0768810510635376,0.9997529603395195,-0.02007382774089422,-0.008606293124964874,-0.004136482552191029
1681238790564323000,1.130322998046875,-1.974096655845642,-0.1895575225353241,-0.12464765459299088,-0.02086734026670456,0.06399725377559662,-0.9977318644523621,-0.09555715322494507,-0.08622918277978897,-0.026697397232055664,0.9994217572246129,-0.03206563547842143,-0.010288564664824742,-0.004710790179521115
1681238790574300200,1.140300048828125,-1.0377808809280396,0.05175096169114113,-0.14364531636238098,-0.02152828685939312,0.07892106473445892,-0.996648371219635,-0.06492794305086136,0.059842489659786224,-0.057703375816345215,0.999146865717133,-0.03955195073522618,-0.01055707157922079,-0.0054631467072076174
1681238790584277000,1.150277099609375,-0.21722033619880676,0.10268247872591019,-0.1085880920290947,-0.020786955952644348,0.0849963128566742,-0.9961643815040588,-0.08948824554681778,0.17179399728775024,-0.1670283079147339,0.9990217112372276,-0.04260223378179125,-0.010141256867714369,-0.006153241729114058
1681238790594254000,1.160254150390625,0.359358549118042,0.17836499214172363,-0.041624765843153,-0.01949218101799488,0.08408823609352112,-0.9962676763534546,-0.1159600242972374,0.2712433338165283,-0.2240387201309204,0.9990450472294224,-0.042146482324770584,-0.009478949245250336,-0.006553184143484732
1681238790604231200,1.170231201171875,0.5625700950622559,0.24839536845684052,-0.00556326936930418,-0.01734071411192417,0.07926889508962631,-0.9967024326324463,-0.0950554609298706,0.28399723768234253,-0.17375344038009644,0.9991530712480364,-0.03972416686005464,-0.008412697701214559,-0.00666556243541698
1681238790614207000,1.18020703125,0.47862163186073303,0.22067105770111084,-0.058943670243024826,-0.014929491095244884,0.07399359345436096,-0.9971469640731812,-0.08147547394037247,0.19729255139827728,-0.11376917362213135,0.9992632161134097,-0.037073364393546075,-0.007217055293168164,-0.006824507193179675
1681238790624183800,1.190183837890625,0.3564744293689728,0.1205684244632721,-0.14205586910247803,-0.013301570899784565,0.06984938681125641,-0.997468888759613,-0.05969640612602234,0.11420226097106934,-0.05261045694351196,0.9993400085589255,-0.034994802121408326,-0.006397870865168372,-0.0073478660033221045
1681238790634161000,1.200160888671875,0.37513813376426697,0.033141911029815674,-0.24689333140850067,-0.012542963959276676,0.06636200100183487,-0.9977167844772339,-0.010757138021290302,0.07609418779611588,0.009664416313171387,0.9993948252210008,-0.03325071655554526,-0.006000284976898974,-0.008265335291811064
1681238790644138000,1.210137939453125,0.602342963218689,-0.12751977145671844,-0.5771477818489075,-0.01367347314953804,0.061232518404722214,-0.998029887676239,0.026445146650075912,0.06851310282945633,0.043760478496551514,0.9994529085934628,-0.030701087165035296,-0.006519954703576883,-0.01043444065149993
1681238790654115000,1.220114990234375,0.6936120986938477,0.1752994805574417,-0.2327219694852829,-0.013736328110098839,0.05482735112309456,-0.9984013438224792,0.005710272118449211,0.09455632418394089,0.06694388389587402,0.9995213535494631,-0.027508840073377956,-0.006525627951872443,-0.012565396192303275
1681238790664092200,1.230092041015625,0.9038501381874084,0.2619653642177582,0.06905514001846313,-0.011363394558429718,0.04681825637817383,-0.9988387823104858,-0.12332586944103241,0.14615978300571442,0.07737576961517334,0.9996271038845929,-0.023487063586570517,-0.005381805868758573,-0.012853808830227078
1681238790674068000,1.24006787109375,0.892762303352356,0.14813704788684845,0.04455592483282089,-0.009267985820770264,0.037693679332733154,-0.99924635887146,-0.09758924692869186,0.1758684664964676,0.04386305809020996,0.9997334356086014,-0.018906882334699334,-0.004398746699155043,-0.012504373664146213
1681238790684045000,1.250045166015625,0.7049199938774109,0.11251246929168701,-0.02320767566561699,-0.008025450631976128,0.029714224860072136,-0.9995262026786804,0.005111088044941425,0.09543849527835846,0.02749556303024292,0.9998038634676246,-0.01490777233934011,-0.003827549801129962,-0.012471752326932374
1681238790694022000,1.26002197265625,0.4442896842956543,0.13542763888835907,-0.026193080469965935,-0.006789586041122675,0.023898473009467125,-0.9996913075447083,-0.004089865367859602,0.0009277109056711197,0.04110372066497803,0.9998435304330494,-0.01199198055486746,-0.0032442368144660087,-0.012597070550156422
1681238790703999000,1.2699990234375,0.09275703132152557,0.11704123020172119,-0.047425899654626846,-0.005510649643838406,0.021226171404123306,-0.9997594952583313,-0.03588637709617615,-0.07333480566740036,0.059985995292663574,0.9998583629049558,-0.010648045321317821,-0.0026197293961777108,-0.01276914119337488
1681238790713975800,1.279975830078125,-0.17098593711853027,0.0827367901802063,-0.09259923547506332,-0.004554301034659147,0.021683067083358765,-0.9997545480728149,-0.03401985019445419,-0.10981769859790802,0.07440054416656494,0.9998523962840005,-0.01087118071501078,-0.0021346512008404415,-0.013136977128077702
1681238790723953000,1.289952880859375,-0.3207622468471527,0.08085105568170547,-0.08605577796697617,-0.003788821632042527,0.02419436350464821,-0.9997000694274902,-0.007823050953447819,-0.07261036336421967,0.10716772079467773,0.9998324387214168,-0.012122757867751566,-0.0017296799274174447,-0.013612472275662512
1681238790733930000,1.299929931640625,-0.4208853840827942,0.08137170225381851,-0.04840773716568947,-0.0029773248825222254,0.027892116457223892,-0.9996064901351929,0.025651950389146805,-0.024779189378023148,0.12684953212738037,0.9998042621596082,-0.013966850626952,-0.00129399442633301,-0.013955997131839395
1681238790743906000,1.309906005859375,-0.4716186225414276,0.057340722531080246,-0.03455924987792969,-0.0022898181341588497,0.03238886594772339,-0.9994727373123169,0.04792892187833786,-0.004358336329460144,0.1334754228591919,0.9997678486854366,-0.016211164399151764,-0.0009154689044017849,-0.014166328843915324
1681238790753883100,1.319883056640625,-0.4129694402217865,0.03864586353302002,-0.009192109107971191,-0.0018340160604566336,0.03690647333860397,-0.9993170499801636,0.05119626596570015,0.008885286748409271,0.14766299724578857,0.9997269793898476,-0.018467618794238853,-0.0006530402208208268,-0.014303202337651484
1681238790763860000,1.32985986328125,-0.2383500635623932,0.03464142978191376,0.056027788668870926,-0.0014709949027746916,0.040159501135349274,-0.9991921782493591,0.05203868821263313,0.05156121030449867,0.1579751968383789,0.9996972979789933,-0.02009222626394656,-0.0004503782047594056,-0.014197310578984507
1681238790773837000,1.339837158203125,-0.08661112934350967,0.03478816896677017,0.11109264194965363,-0.001097685657441616,0.04172225669026375,-0.9991286396980286,0.06541354954242706,0.0743362307548523,0.14007407426834106,0.999687384638774,-0.020871253374629455,-0.00026150985873928134,-0.013770840997205597
1681238790783814000,1.34981396484375,-0.020678889006376266,0.03461224213242531,0.13244891166687012,-0.0006972957053221762,0.042208027094602585,-0.999108612537384,0.06959079205989838,0.02941686287522316,0.10463839769363403,0.9996905452192251,-0.021111478788347002,-0.00007079461398114957,-0.013162278211453132
1681238790793791000,1.359791015625,-0.026281381025910378,0.016975989565253258,0.14804625511169434,-0.0003629234270192683,0.04241148382425308,-0.9991001486778259,0.05921613797545433,-0.022590182721614838,0.08419841527938843,0.9996972786591347,-0.021211125225244386,0.00008314291639923147,-0.012473617186407913
1681238790803767800,1.369767822265625,-0.06424647569656372,-0.0246291346848011,0.18245568871498108,-0.00032639066921547055,0.042844925075769424,-0.9990816712379456,0.05240470543503761,-0.06361200660467148,0.07081329822540283,0.9997024014217761,-0.021427828295148086,0.00008670523765170064,-0.011661227098182382
1681238790813744000,1.379744140625,-0.11481138318777084,-0.058594558387994766,0.23466722667217255,-0.0006618807674385607,0.043746381998062134,-0.9990424513816833,0.0528012290596962,-0.09393240511417389,0.051746368408203125,0.9997042543464091,-0.02188070924474658,-0.00009866864798296125,-0.010616699063470096
1681238790823721000,1.389720947265625,-0.14555257558822632,-0.0736238956451416,0.27014341950416565,-0.001191830961033702,0.04507903382182121,-0.9989827275276184,0.06559924781322479,-0.10438981652259827,0.018330872058868408,0.9997021031999933,-0.02254983296366214,-0.00038547994368290497,-0.009337115346528375
1681238790833698000,1.399697998046875,-0.12123499065637589,-0.08861882239580154,0.2886795401573181,-0.0018643427174538374,0.046443015336990356,-0.9989191889762878,0.08258340507745743,-0.09284485876560211,-0.006024658679962158,0.9996984201204756,-0.023234445313785677,-0.0007482017382524855,-0.007927680027213167
1681238790843675000,1.4096748046875,-0.07824145257472992,-0.10696134716272354,0.29441067576408386,-0.0026922596152871847,0.047434139996767044,-0.9988707304000854,0.0963507741689682,-0.0715581551194191,0.0031737685203552246,0.999696770691643,-0.02373197936803093,-0.0011930799359801902,-0.006464342565877884
1681238790853652000,1.41965185546875,-0.0496167317032814,-0.08881430327892303,0.29313766956329346,-0.003535092808306217,0.04805275797843933,-0.9988385438919067,0.10097778588533401,-0.06589014828205109,0.02366459369659424,0.9996972207102907,-0.024041877213998655,-0.0016481471695931561,-0.004987061016086308
1681238790863629000,1.429629150390625,-0.08735928684473038,-0.03792017698287964,0.29084718227386475,-0.004050386603921652,0.048700712621212006,-0.9988052248954773,0.09368058294057846,-0.05698610097169876,0.040446460247039795,0.999695154525224,-0.024364609387936987,-0.0019400535091070024,-0.003518680330763935
1681238790873606000,1.43960595703125,-0.14821596443653107,-0.0008574957028031349,0.28180602192878723,-0.004084047861397266,0.04989652335643768,-0.9987460374832153,0.07840967923402786,-0.04061904922127724,0.06898230314254761,0.9996842739281041,-0.02496030365584196,-0.0019904670691558136,-0.002090736528434083
1681238790883582200,1.449582275390625,-0.28504833579063416,0.02029716596007347,0.24538257718086243,-0.003813557792454958,0.05195724219083786,-0.9986420273780823,0.05992019549012184,-0.028534866869449615,0.08789068460464478,0.9996601835286366,-0.025988920567907314,-0.0018872071772275555,-0.000777755979932045
1681238790893559000,1.45955908203125,-0.5487377643585205,0.010672766715288162,0.21581058204174042,-0.003553793067112565,0.05609447509050369,-0.9984191656112671,0.05483865365386009,-0.032702621072530746,0.10179746150970459,0.99960468053946,-0.028057694990242223,-0.0017875735181010915,0.00035535232381442614
1681238790903536000,1.4695361328125,-0.8031305074691772,0.034292981028556824,0.20217818021774292,-0.0032054027542471886,0.06284286826848984,-0.9980182647705078,0.061799220740795135,-0.04161776602268219,0.10165601968765259,0.9995035070755163,-0.03143474851471559,-0.0016472680981609593,0.0013917343042199922
1681238790913513000,1.479512939453125,-0.9958821535110474,0.034956373274326324,0.17951121926307678,-0.0027196211740374565,0.0718868225812912,-0.9974091053009033,0.0637701079249382,-0.046297699213027954,0.10417485237121582,0.9993493398134191,-0.0359634438568195,-0.0014445505443579673,0.002330143720101027
1681238790923490000,1.489489990234375,-1.0155855417251587,0.03431444615125656,0.20186631381511688,-0.002253967337310314,0.0820528045296669,-0.9966254234313965,0.05953553318977356,-0.04991766810417175,0.06736522912979126,0.9991507934262219,-0.0410571749635627,-0.0012612548251205932,0.003244259450742001
1681238790933467000,1.499466796875,-0.8094273805618286,0.06734749674797058,0.2574746906757355,-0.001555992173962295,0.09126017242670059,-0.9958258867263794,0.06016507372260094,-0.04290493577718735,0.039374470710754395,0.9989464609243827,-0.04567392584403638,-0.0009786823245392158,0.004371315969347347
1681238790943443000,1.50944287109375,-0.4617735743522644,0.10584428906440735,0.30375826358795166,-0.0004391137626953423,0.09761559963226318,-0.995224118232727,0.06881382316350937,-0.01811717450618744,0.02360546588897705,0.9987887833912339,-0.048864100713297574,-0.0005013498435751301,0.005754443763984783
1681238790953420000,1.519419921875,0.40011802315711975,-0.33434799313545227,0.26334214210510254,-0.0003967318625655025,0.09877564013004303,-0.9951096773147583,0.06700141727924347,0.027307868003845215,-0.0161513090133667,0.9987506098372451,-0.04944558293438714,-0.0005560136164015906,0.007219107982345823
1681238790963397000,1.529397216796875,0.3920866549015045,0.05529845505952835,0.13053928315639496,-0.0012582746567204595,0.09427142143249512,-0.9955457448959351,0.05541178956627846,0.07946528494358063,-0.02247488498687744,0.9988518408664782,-0.04718149089057591,-0.001018859499338063,0.008235270417314462
1681238790973374000,1.5393740234375,0.181058868765831,0.13260309398174286,0.03823970630764961,-0.0002681041951291263,0.09162698686122894,-0.995793342590332,-0.014609145000576973,0.0809500515460968,-0.1304730772972107,0.9989107117834606,-0.04585889593418986,-0.0005290502214502875,0.008600770362708
1681238790983351000,1.54935107421875,0.26400092244148254,0.030538350343704224,0.02566647157073021,0.000709555228240788,0.08947598189115524,-0.9959887266159058,-0.13185878098011017,0.0494706854224205,-0.24293339252471924,0.9989587507936929,-0.044784314317913056,-0.00003538060579868368,0.008711116404596509
1681238790993328000,1.559328125,0.2611076533794403,-0.1990642100572586,0.07147657126188278,-0.0000879412837093696,0.08676806092262268,-0.9962285161018372,-0.04043933004140854,0.05370447784662247,-0.17454779148101807,0.999016556320183,-0.043422850633464065,-0.000433545142233446,0.008961828295807085
1681238791003305000,1.569304931640625,0.16851992905139923,-0.3027055561542511,0.11971880495548248,-0.002659329678863287,0.08462794125080109,-0.9964090585708618,0.0961347445845604,0.04337816685438156,-0.1469777226448059,0.9990566242106262,-0.04233741473645722,-0.0017340655272453415,0.009513213346266822
1681238791013281000,1.579281005859375,0.018272370100021362,-0.2531731426715851,0.1047062948346138,-0.0053346226923167706,0.08366613835096359,-0.9964795708656311,0.11968405544757843,0.04908546060323715,-0.053477704524993896,0.9990679572871799,-0.04184067415968399,-0.0030946431109211883,0.010144374061132269
1681238791023257300,1.58925732421875,-0.044691480696201324,-0.15393295884132385,0.10598098486661911,-0.007281291764229536,0.08392152190208435,-0.9964457750320435,0.05659777298569679,0.008516348898410797,-0.012572169303894043,0.9990537627678302,-0.04195665172766583,-0.004093562304769711,0.010702543407365398
1681238791033234400,1.599234375,-0.061067789793014526,-0.11489341408014297,0.1313886046409607,-0.008459700271487236,0.08440005034208298,-0.9963960647583008,-0.01079681795090437,-0.05713246762752533,-0.02220439910888672,0.9990344001241617,-0.0421873948874906,-0.004712192873732243,0.011325485379053158
1681238791043211300,1.609211181640625,-0.10256414115428925,-0.1646367311477661,0.1494573950767517,-0.009687695652246475,0.08526300638914108,-0.996311366558075,-0.022966040298342705,-0.07722149789333344,-0.04194235801696777,0.9990047189008305,-0.042609285425013375,-0.005362669861470531,0.012051009147077267
1681238791053188400,1.619188232421875,-0.03748606517910957,-0.23078085482120514,0.16501319408416748,-0.011533861979842186,0.08602782338857651,-0.9962259531021118,0.010282715782523155,-0.03469713777303696,-0.04657489061355591,0.9989730720594528,-0.04297656738890445,-0.0063268936062174635,0.012878301691864663
1681238791063165400,1.62916552734375,0.04656755551695824,-0.26214927434921265,0.17486116290092468,-0.013862649910151958,0.08597805351018906,-0.9962005615234375,0.044609181582927704,0.018209092319011688,-0.022979676723480225,0.9989547504681059,-0.042930148801357794,-0.007530645754163165,0.013777015078911346
1681238791073142300,1.639142333984375,0.10810309648513794,-0.2452765703201294,0.17539432644844055,-0.016254914924502373,0.08523730933666229,-0.9962280988693237,0.049641214311122894,0.030821174383163452,-0.01719963550567627,0.9989482824482464,-0.042534460514253164,-0.008762506803586832,0.014713571910233224
1681238791083118300,1.649118408203125,0.1900770217180252,-0.19957277178764343,0.13805246353149414,-0.018333591520786285,0.08378946781158447,-0.9963148236274719,0.025184860453009605,0.036877162754535675,-0.003715693950653076,0.998957154301587,-0.04178540399777096,-0.009827206839001255,0.015559566999220068
1681238791093095400,1.659095458984375,0.28469887375831604,-0.15413311123847961,0.07716621458530426,-0.019984565675258636,0.0814528688788414,-0.9964768290519714,-0.008518781512975693,0.041792504489421844,0.0063187479972839355,0.9989884045269608,-0.04059538680298366,-0.010658591615477574,0.016147821284647472
1681238791103072500,1.669072509765625,0.37859925627708435,-0.13832683861255646,0.05119067430496216,-0.02135760337114334,0.07816913723945618,-0.9967113137245178,-0.02884373627603054,0.05027947574853897,0.003913521766662598,0.9990412729215737,-0.038934876782066474,-0.011332217349294956,0.01650323627129397
1681238791113049300,1.67904931640625,0.43966367840766907,-0.15125195682048798,0.052311066538095474,-0.0227279681712389,0.07406497746706009,-0.9969943761825562,-0.03220359981060028,0.07269418984651566,-0.009566903114318848,0.9991069573020402,-0.03686377383045068,-0.011994406707559682,0.016810838356187203
1681238791123026400,1.6890263671875,0.46209222078323364,-0.18595059216022491,0.06854219734668732,-0.024368317797780037,0.06957370787858963,-0.997279167175293,-0.017684832215309143,0.08811075240373611,-0.04828357696533203,0.9991722474700055,-0.03459599593089464,-0.012788528260380565,0.01716336167941039
1681238791133003300,1.699003173828125,0.4330478012561798,-0.2128879427909851,0.1229172870516777,-0.026288121938705444,0.0651024803519249,-0.9975322484970093,0.004498647525906563,0.07469867169857025,-0.06667667627334595,0.9992264896786317,-0.03233352339186084,-0.013726435153734118,0.01768307791318164
1681238791142980400,1.70898046875,0.34747615456581116,-0.20615918934345245,0.17073701322078705,-0.028336431831121445,0.06120474636554718,-0.9977229237556458,0.019822102040052414,0.035185154527425766,-0.06071823835372925,0.9992593697978631,-0.030352139268523225,-0.014740672271778889,0.018500799374790475
1681238791152956200,1.7189560546875,0.1798544079065323,-0.23125337064266205,0.13298936188220978,-0.030381450429558754,0.0585937537252903,-0.9978194832801819,0.029679618775844574,-0.006347529590129852,-0.032087743282318115,0.9992680440078161,-0.029013591424378763,-0.01576277815007297,0.019319060788585748
1681238791162933200,1.728933349609375,0.019532911479473114,-0.2473234087228775,0.09540604054927826,-0.0327104814350605,0.05765782669186592,-0.9978004097938538,0.02923155203461647,-0.048288799822330475,0.0006690621376037598,0.9992513077675547,-0.028512786001232807,-0.016936076692858282,0.019926349941017708
1681238791172910300,1.738910400390625,-0.05533120781183243,-0.23768383264541626,0.07098804414272308,-0.035125188529491425,0.05792173743247986,-0.9977030158042908,0.019744403660297394,-0.09081955254077911,0.02176612615585327,0.9992178196547221,-0.028613230577463986,-0.01815981415489421,0.020375713164415943
1681238791182887400,1.748887451171875,-0.06053689122200012,-0.17775818705558777,0.04004424437880516,-0.03718516603112221,0.058538828045129776,-0.9975923299789429,0.011016417294740677,-0.10803821682929993,0.036639630794525146,0.9991839489661957,-0.028895799996805693,-0.01920584800909285,0.02068095220266809
1681238791192864500,1.758864501953125,-0.0504099540412426,-0.10500301420688629,0.0062703038565814495,-0.03857136145234108,0.05909651145339012,-0.9975067973136902,-0.012743867933750153,-0.07881073653697968,0.04050612449645996,0.9991598480758483,-0.029158428893473132,-0.01990921358138453,0.02081066470913014
1681238791202841300,1.76884130859375,-0.0530581995844841,-0.06928256899118423,-0.023594915866851807,-0.03940092399716377,0.059603117406368256,-0.9974442720413208,-0.03844934329390526,-0.00819612666964531,0.0182725191116333,0.9991448987801115,-0.029404357766855613,-0.020328742240514015,0.020775707314748936
1681238791212818400,1.778818359375,-0.10077362507581711,-0.08026544749736786,-0.0480179525911808,-0.04014478623867035,0.060319073498249054,-0.9973715543746948,-0.04274088144302368,0.04086208716034889,-0.015064358711242676,0.9991304116074331,-0.02975897785111239,-0.020703355633781454,0.020597469031441572
1681238791222794200,1.788794189453125,-0.18430863320827484,-0.0991482138633728,-0.057748761028051376,-0.04106612876057625,0.06171427667140961,-0.997248649597168,-0.018641438335180283,0.02960970625281334,-0.025593698024749756,0.9991050365132141,-0.03045381647374285,-0.021171373227753643,0.020337717906043724
1681238791232771300,1.798771240234375,-0.23703841865062714,-0.09350471198558807,-0.04674990475177765,-0.042075265198946,0.06380443274974823,-0.997075080871582,0.00932997465133667,-0.014747299253940582,-0.006754875183105469,0.9990670973186535,-0.03149641540045753,-0.021689812250655083,0.02006401453844923
1681238791242748200,1.808748046875,-0.2962830662727356,-0.08046566694974899,0.000489463156554848,-0.042932622134685516,0.06647705286741257,-0.9968639016151428,0.025125689804553986,-0.04381761699914932,0.020438730716705322,0.9990168249005922,-0.03282943679227962,-0.022142470687154196,0.019933008377393733
1681238791252725200,1.818725341796875,-0.286760151386261,-0.08495202660560608,0.021794751286506653,-0.04376368224620819,0.06939514726400375,-0.9966288208961487,0.02287447452545166,-0.0456523522734642,0.025223851203918457,0.9989570408095348,-0.03428193434068981,-0.022590413319472494,0.019981719000394298
1681238791262702300,1.828702392578125,-0.2627054452896118,-0.08655545860528946,0.02142728492617607,-0.04461336135864258,0.07213431596755981,-0.9963966608047485,0.024334505200386047,-0.03653543442487717,0.029050469398498535,0.9988971495000494,-0.03564393798696272,-0.023047423582631593,0.020068655524429987
1681238791272679400,1.838679443359375,-0.2199971228837967,-0.07881098240613937,0.013212232850492,-0.04542945697903633,0.07454916089773178,-0.9961820244789124,0.0180247463285923,-0.026911094784736633,0.020016252994537354,0.9988419107412647,-0.03684411828127284,-0.02348421605971059,0.020146790480578908
1681238791282656500,1.848656494140625,-0.14873066544532776,-0.07341915369033813,-0.0013334203977137804,-0.046195171773433685,0.0763876661658287,-0.99600750207901,0.004584521055221558,-0.008516445755958557,0.00923687219619751,0.9987977805650934,-0.03775743434499949,-0.023887830312244264,0.020168926615921023
1681238791292632300,1.85863232421875,-0.0651998221874237,-0.06173160299658775,-0.0024596713483333588,-0.04705575853586197,0.0775223821401596,-0.9958795309066772,-0.0032218769192695618,0.01021578162908554,0.002044081687927246,0.9987658689525348,-0.038317945635317305,-0.02433044931512239,0.020161407717268563
1681238791302609400,1.868609375,0.002177191199734807,-0.046144552528858185,0.0013604833511635661,-0.04764830321073532,0.07786986231803894,-0.9958242177963257,-0.00973992794752121,0.023341819643974304,-0.003061830997467041,0.9987518918275865,-0.03848610621065311,-0.024631231201547355,0.020171902908973974
1681238791312586200,1.878586181640625,0.06578785926103592,-0.03468416631221771,-0.006617814302444458,-0.04797082394361496,0.07745381444692612,-0.9958412051200867,-0.01190459355711937,0.03768914192914963,-0.00544053316116333,0.9987560269908787,-0.038274315128834675,-0.024788576833306517,0.020178773479883626
1681238791322563300,1.888563232421875,0.11607722193002701,-0.021056238561868668,-0.002919765654951334,-0.048145074397325516,0.07641197741031647,-0.9959132671356201,-0.013363026082515717,0.050587043166160583,-0.0028201937675476074,0.9987741751247023,-0.0377507467373487,-0.024864454271509462,0.020170129095938204
1681238791332540200,1.8985400390625,0.11359595507383347,-0.004623470827937126,0.014551369473338127,-0.0481279082596302,0.07512963563203812,-0.9960116744041443,-0.012190010398626328,0.04941272735595703,-0.006689131259918213,0.9987978515947658,-0.03710710471259041,-0.024844088318759623,0.02021897669455906
1681238791342517200,1.908517333984375,0.08828204870223999,0.0021038330160081387,0.030687112361192703,-0.0479547381401062,0.0739828571677208,-0.9961058497428894,-0.01201222836971283,0.033622242510318756,-0.01604008674621582,0.998818790647267,-0.03653098025480267,-0.02474991912446196,0.020347527867603875
1681238791352494300,1.918494384765625,0.0631527304649353,0.0045550065115094185,0.05450349673628807,-0.04771468788385391,0.07309737056493759,-0.9961827397346497,-0.00880378857254982,0.011741623282432556,-0.011812806129455566,0.998833684012337,-0.03608438754544719,-0.02462800989463522,0.02056127445653366
1681238791362470400,1.928470458984375,0.04827737435698509,0.007868671789765358,0.09425690025091171,-0.04756060987710953,0.07253428548574448,-0.9962312579154968,-0.0031747855246067047,-0.012979105114936829,0.0047152042388916016,0.9988380896554271,-0.035794669158570866,-0.024558113096919458,0.020932536016168436
1681238791372447200,1.938447265625,0.024099867790937424,0.0074228583835065365,0.1253325343132019,-0.04742543771862984,0.07230960577726364,-0.9962540864944458,-0.0023333989083766937,-0.029081322252750397,0.0132066011428833,0.9988320740990659,-0.035669896802328294,-0.024507735746194314,0.021485706124178678
1681238791382424300,1.94842431640625,0.020767653360962868,0.008142390288412571,0.12677565217018127,-0.04733710736036301,0.07231201231479645,-0.9962580800056458,-0.004435889422893524,-0.0372929573059082,0.009350121021270752,0.9988191309123788,-0.03565637588139179,-0.0244863300342494,0.022123986088937658
1681238791392401400,1.9584013671875,0.054618824273347855,0.018536176532506943,0.1132286936044693,-0.04723251610994339,0.07222267985343933,-0.9962695240974426,-0.0029230453073978424,-0.03346522897481918,0.013969779014587402,0.9988084619052295,-0.03559795310713387,-0.024454467539712265,0.022728028889244772
1681238791402378200,1.968378173828125,0.10560794174671173,0.0382339283823967,0.09599290043115616,-0.047009289264678955,0.07176809757947922,-0.9963129162788391,-0.0036955885589122772,-0.01743142306804657,0.018712878227233887,0.9988071304683519,-0.03535977375045318,-0.024356067081223447,0.023257165588229777
1681238791412355300,1.978355224609375,0.15018047392368317,0.043806061148643494,0.06993679702281952,-0.04667364060878754,0.07085773348808289,-0.9963938593864441,-0.012576162815093994,0.004902273416519165,0.013025999069213867,0.9988175681169162,-0.03489735635160574,-0.02419167319641765,0.023676533791712355
1681238791422332200,1.988332275390625,0.18014168739318848,0.03636859729886055,0.04739893227815628,-0.04637341946363449,0.06945133209228516,-0.996506929397583,-0.014905806630849838,0.02823556214570999,0.0004742145538330078,0.9988386388466465,-0.03418910986495499,-0.024034361134025486,0.023976625347764173
1681238791432308500,1.99830859375,0.18473191559314728,0.033395711332559586,0.029002878814935684,-0.04610699415206909,0.06773945689201355,-0.9966371059417725,-0.010182607918977737,0.034738704562187195,-0.008016824722290039,0.9988662658393735,-0.03332986894945396,-0.02388658898805484,0.02418285385072638
1681238791442285300,2.008285400390625,0.1723375916481018,0.027565037831664085,0.019395343959331512,-0.045853689312934875,0.06591596454381943,-0.9967710375785828,-0.0034321248531341553,0.020204775035381317,-0.008340656757354736,0.9988965543915778,-0.032416497647930274,-0.023741228270503026,0.024314354381718216
1681238791452262400,2.018262451171875,0.1445549726486206,0.015007967129349709,0.026435142382979393,-0.04565507918596268,0.06419455260038376,-0.996892511844635,-0.0004874207079410553,0.003813996911048889,-0.00777667760848999,0.998923945839499,-0.031553867751179444,-0.023624123536030345,0.024439551594824454
1681238791462239200,2.0282392578125,0.10064250975847244,-0.005303589627146721,0.03380284458398819,-0.04566769674420357,0.06278391927480698,-0.9969817399978638,0.0024396218359470367,-0.006677225232124329,-0.004498302936553955,0.9989423719110178,-0.030843623408561296,-0.023617537295475513,0.02459861478538328
1681238791472216300,2.03821630859375,0.03846142813563347,-0.028056839480996132,0.035334695130586624,-0.045867566019296646,0.06193407252430916,-0.997025728225708,0.005279269069433212,-0.02088780328631401,0.007539093494415283,0.9989489878247415,-0.03041153735770919,-0.023712143357978367,0.0247747359649825
1681238791482193200,2.048193115234375,-0.048234086483716965,-0.046182259917259216,0.04487685114145279,-0.04629737138748169,0.06194339692592621,-0.99700528383255,0.008257288485765457,-0.03823111206293106,0.022914767265319824,0.9989387711749592,-0.03040610489268058,-0.02393362714341196,0.02497994774389426
1681238791492170200,2.058170166015625,-0.1242540180683136,-0.05645380914211273,0.045686185359954834,-0.04696886986494064,0.06295862793922424,-0.9969102740287781,0.00940181314945221,-0.04971387982368469,0.01766228675842285,0.9989095852365133,-0.030900948589081545,-0.024289578490583014,0.025198489693613633
1681238791502146300,2.068146240234375,-0.15792474150657654,-0.070258729159832,0.03983058035373688,-0.04773801937699318,0.0646718293428421,-0.996764063835144,0.010323546826839447,-0.06290168315172195,0.021452784538269043,0.9988678213508,-0.03174441676083105,-0.024703257377499847,0.02539906993305162
1681238791512123400,2.078123291015625,-0.16224251687526703,-0.07932811975479126,0.05751290172338486,-0.04854745417833328,0.06653888523578644,-0.9966020584106445,0.009500287473201752,-0.06394476443529129,0.025319159030914307,0.9988211264551017,-0.03266338492814495,-0.025140793012206505,0.025638145272803486
1681238791522100500,2.0881005859375,-0.15589836239814758,-0.0830201730132103,0.07100065797567368,-0.04931304231286049,0.06827553361654282,-0.9964470267295837,0.011150885373353958,-0.04045862704515457,0.02356189489364624,0.9987742529712668,-0.03351559615379329,-0.025557618920197547,0.025951226708744946
1681238791532077300,2.098077392578125,-0.14030689001083374,-0.09767580777406693,0.06469029933214188,-0.05011465772986412,0.06978872418403625,-0.9963021874427795,0.015248402953147888,-0.020777374505996704,0.025232911109924316,0.9987293285620349,-0.03425473019215206,-0.025990731505077382,0.02628474329860333
1681238791542054400,2.108054443359375,-0.13768181204795837,-0.10864797979593277,0.06415048241615295,-0.0510159507393837,0.07110457122325897,-0.9961633682250977,0.011892490088939667,-0.008970655500888824,0.007592260837554932,0.9986862906690823,-0.03489403433770087,-0.026470889242908188,0.026598772882544582
1681238791552031200,2.11803125,-0.17119662463665009,-0.13175196945667267,0.05889046937227249,-0.052062902599573135,0.07245007157325745,-0.996012270450592,0.008361801505088806,-0.0034954771399497986,0.003168642520904541,0.9986402369675869,-0.03554626148101033,-0.02702458694500589,0.026905480567088327
1681238791562008300,2.12800830078125,-0.24466481804847717,-0.14994268119335175,0.0507526658475399,-0.05329268425703049,0.07426133006811142,-0.99581378698349,0.016488559544086456,-0.003017917275428772,-0.0038046836853027344,0.998583254448332,-0.036430184998135794,-0.027675552027718733,0.027175276433179782
1681238791571984400,2.137984375,-0.25151607394218445,-0.12678490579128265,0.02420201525092125,-0.05453597754240036,0.0764169916510582,-0.9955833554267883,0.02249259501695633,-0.003907091915607452,-0.021308064460754395,0.9985203596510815,-0.037488519219216095,-0.028335835138736665,0.02736620936575025
1681238791581961500,2.14796142578125,-0.35371604561805725,-0.0958223044872284,0.03770438954234123,-0.05538284033536911,0.07891102880239487,-0.9953420758247375,0.02312583476305008,-0.022453375160694122,-0.011692225933074951,0.9984567600819197,-0.03872380880958763,-0.02880004838728732,0.027481362650185085
1681238791591938300,2.157938232421875,-0.46483588218688965,-0.06939415633678436,0.09565291553735733,-0.055947910994291306,0.08234543353319168,-0.9950321912765503,0.006005968898534775,-0.05031710863113403,-0.021966099739074707,0.9983715512003829,-0.04042956023046307,-0.029143689949065403,0.027758800986905554
1681238791601915400,2.167915283203125,-0.5202106237411499,-0.023024531081318855,0.11012158542871475,-0.05601989105343819,0.0867369994521141,-0.9946549534797668,-0.007441341876983643,-0.05509014427661896,-0.014195144176483154,0.998263484433463,-0.042615970679932454,-0.0292643936042795,0.028243656785734574
1681238791611892200,2.177892333984375,-0.5509243607521057,-0.007082847878336906,0.005272134207189083,-0.0557435005903244,0.09177187085151672,-0.9942185878753662,-0.02282392606139183,-0.06355823576450348,0.02586531639099121,0.9981467943579048,-0.04513704216240414,-0.029212278112586053,0.0284996720807593
1681238791621869300,2.187869384765625,-0.3783237636089325,-0.1770428568124771,-0.1888570934534073,-0.05652041360735893,0.0961635559797287,-0.9937595129013062,-0.0509013831615448,-0.06796517968177795,0.020599782466888428,0.9980481051301701,-0.04734650641484675,-0.029640184993615825,0.027924432538932592
1681238791631846400,2.197846435546875,-0.023088950663805008,-0.09291066974401474,-0.05858830735087395,-0.05794796347618103,0.09805329889059067,-0.993492603302002,-0.0245562344789505,-0.02041645348072052,-0.04589027166366577,0.998000303908034,-0.04829664000129941,-0.030350036782947936,0.027235102654531246
1681238791641823200,2.2078232421875,0.16536842286586761,0.016070250421762466,0.07344122231006622,-0.05839832127094269,0.09723900258541107,-0.9935463070869446,0.03782954812049866,0.08591237664222717,0.03083878755569458,0.9980103531880928,-0.04787833247875758,-0.030569990327551724,0.027361135118979227
1681238791651799600,2.217799560546875,0.1615598350763321,0.13761664927005768,-0.05017925798892975,-0.05746956914663315,0.09553346037864685,-0.9937658905982971,0.007939614355564117,0.1940632313489914,0.12137514352798462,0.9980617738845099,-0.04703078683731321,-0.03008602670886803,0.027491100614382737
1681238791661776400,2.2277763671875,0.10758164525032043,0.1398627609014511,-0.15923145413398743,-0.05619923025369644,0.09414418041706085,-0.9939711093902588,-0.04235721006989479,0.1481044888496399,-0.01881575584411621,0.998129120826183,-0.04636785525042935,-0.02940202874300622,0.026902377276831292
1681238791671753500,2.23775341796875,0.08141102641820908,0.08198801428079605,-0.11102104932069778,-0.0551951639354229,0.09314478188753128,-0.9941214919090271,-0.05137214437127113,0.026499509811401367,-0.0696144700050354,0.9981856981015846,-0.04589997435954503,-0.02885213893445777,0.02619197463578425
1681238791681730300,2.247730224609375,0.09290063381195068,0.0533401221036911,-0.06417235732078552,-0.05462611839175224,0.09225717931985855,-0.9942356944084167,0.005416598170995712,-0.029818080365657806,-0.03698378801345825,0.9982254581029131,-0.04547414141772143,-0.028535231311170646,0.025762668394735268
1681238791691707400,2.257707275390625,0.1204259991645813,0.04256870225071907,-0.045339010655879974,-0.05420823395252228,0.09114693850278854,-0.9943609237670898,0.04670098423957825,-0.010305747389793396,-0.03800290822982788,0.9982637513920041,-0.044930043590532535,-0.028298681819681284,0.025493641547168707
1681238791701684200,2.267684326171875,0.151736781001091,0.04160729795694351,-0.0174541175365448,-0.05381431058049202,0.08979902416467667,-0.994504988193512,0.02979705110192299,0.02068999409675598,-0.03206056356430054,0.998303444286211,-0.04426274016234189,-0.028077030225370784,0.025354061862759347
1681238791711661300,2.277661376953125,0.20167770981788635,0.04269386827945709,-0.0022956705652177334,-0.05339498445391655,0.08802573382854462,-0.9946861267089844,-0.01169893890619278,0.024569004774093628,-0.005832672119140625,0.998349408703326,-0.04337927842689091,-0.02784216175888547,0.025328091534938146
1681238791721637400,2.287637451171875,0.24112752079963684,0.04084180295467377,0.005512384697794914,-0.05299946293234825,0.08584469556808472,-0.9948978424072266,-0.02402682974934578,0.012864544987678528,0.0064945220947265625,0.9984018192115743,-0.04228980954207425,-0.027616002121791335,0.025352104918144706
1681238791731614500,2.297614501953125,0.30188673734664917,0.0635676234960556,0.024590738117694855,-0.0524936318397522,0.08313310146331787,-0.9951549172401428,-0.022289618849754333,0.0060699135065078735,0.013038218021392822,0.9984635621267716,-0.04093373904327612,-0.027330774634141384,0.025454938403806315
1681238791741591600,2.307591552734375,0.33425670862197876,0.10020403563976288,0.04009680822491646,-0.05164409428834915,0.07996844500303268,-0.9954586625099182,-0.01900402083992958,0.01443781703710556,0.03201872110366821,0.998534465150542,-0.03935245494119549,-0.026871104294828484,0.025657260419614584
1681238791751568400,2.317568359375,0.3288523554801941,0.13420701026916504,0.04673420637845993,-0.05043792352080345,0.0766749382019043,-0.9957795739173889,-0.02211754396557808,0.017761841416358948,0.033209383487701416,0.9986085402952989,-0.03771058081071546,-0.02623209253458771,0.025898053963099542
1681238791761545500,2.32754541015625,0.33253446221351624,0.16073711216449738,0.05070599541068077,-0.04893135279417038,0.07342725247144699,-0.9960994720458984,-0.020969081670045853,0.009794309735298157,0.029516220092773438,0.9986819144928691,-0.036095694635143505,-0.025443351611838503,0.026156536094789427
1681238791771522300,2.337522216796875,0.3304441571235657,0.18106314539909363,0.04980318248271942,-0.04717434570193291,0.07014725357294083,-0.9964205622673035,-0.019475970417261124,-0.0012384355068206787,0.03252285718917847,0.9987551839416599,-0.034468283402357455,-0.024528645061535775,0.026428305363790688
1681238791781499400,2.34749951171875,0.3171417713165283,0.1890360563993454,0.003327227896079421,-0.04528852924704552,0.06694149971008301,-0.9967285394668579,-0.019256073981523514,-0.00979720801115036,0.02433168888092041,0.9988283857302171,-0.032883543177470206,-0.023545740408527863,0.026575292510081498
1681238791791475200,2.35747509765625,0.3400351107120514,0.16053436696529388,-0.032292820513248444,-0.043616414070129395,0.06382495909929276,-0.9970074892044067,-0.013726040720939636,-0.0045596882700920105,0.004865825176239014,0.9988997688622635,-0.03134599101270366,-0.022664325324902163,0.026516391739664236
1681238791801452300,2.367452392578125,0.39280298352241516,0.1602661907672882,-0.047165509313344955,-0.0421050526201725,0.060202956199645996,-0.9972977042198181,-0.00931699201464653,0.01271892711520195,-0.01042318344116211,0.9989774235082017,-0.029556427019784854,-0.02185293921943133,0.026324791970860587
1681238791811429400,2.377429443359375,0.40468254685401917,0.12323974072933197,-0.04550129920244217,-0.040699344128370285,0.05616471543908119,-0.9975916147232056,-0.004252973943948746,0.024417079985141754,-0.018735229969024658,0.9990566816669281,-0.02755777218279393,-0.021089028534167224,0.0261074460076675
1681238791821406500,2.387406494140625,0.36429792642593384,0.0787130668759346,-0.039433516561985016,-0.03972898796200752,0.052292600274086,-0.9978412389755249,0.00010198727250099182,0.03945862501859665,-0.0402752161026001,0.9991238345746352,-0.025635983811402387,-0.02054722326192086,0.02592946614214538
1681238791831383300,2.39738330078125,0.2773614227771759,0.045587338507175446,-0.030408065766096115,-0.039132315665483475,0.04909609258174896,-0.9980271458625793,0.013772286474704742,0.04193796589970589,-0.03760206699371338,0.9991744253451529,-0.024047245931880193,-0.02020257327455463,0.025771644247108493
1681238791841360400,2.4073603515625,0.20882292091846466,0.05103393271565437,-0.0034314088989049196,-0.03867848217487335,0.04668105021119118,-0.998160719871521,0.01910153031349182,-0.0006604120135307312,-0.015205979347229004,0.9992096637894319,-0.022846025359756127,-0.019942191638518035,0.025702062601016918
1681238791851337500,2.41733740234375,0.15409494936466217,0.052736226469278336,0.005581260658800602,-0.03814925625920296,0.04489251598715782,-0.9982631206512451,0.010714028030633926,-0.036805231124162674,-0.008404970169067383,0.9992345794174213,-0.021957403768890705,-0.019654580059289585,0.025727424748228922
1681238791861314300,2.427314208984375,0.17365489900112152,0.04513529688119888,-0.0011658745352178812,-0.03765764832496643,0.04333379119634628,-0.9983506798744202,0.0041951984167099,-0.053923264145851135,0.009611666202545166,0.9992561396620208,-0.021183552299742312,-0.01938855577911613,0.025742072478796278
1681238791871290400,2.437290283203125,0.25862279534339905,0.04956839606165886,0.028150735422968864,-0.037193771451711655,0.04122570529580116,-0.9984573721885681,0.006523679941892624,-0.047603752464056015,0.032118260860443115,0.9992811785844732,-0.0201336318693502,-0.019130224630426722,0.025806979990463472
1681238791881267200,2.44726708984375,0.3777317404747009,0.05771426111459732,0.05077648535370827,-0.03664450719952583,0.03806648030877113,-0.998603105545044,0.004280690103769302,-0.008388005197048187,0.027457475662231445,0.9993115621466186,-0.018556025105751748,-0.018818366540317315,0.026037818697571956
1681238791891244300,2.457244384765625,0.37967613339424133,0.03942207247018814,0.060257069766521454,-0.036139026284217834,0.034235913306474686,-0.9987601637840271,-0.0004667341709136963,0.028371024876832962,0.0159873366355896,0.9993426616204967,-0.01664083573872965,-0.018520219841895974,0.02635279274043578
1681238791901221400,2.467221435546875,0.3020401895046234,0.0434357225894928,0.03973448649048805,-0.03570559620857239,0.030855461955070496,-0.9988859295845032,-0.007003679871559143,0.03477271646261215,-0.004074275493621826,0.9993667327138257,-0.014950843626415208,-0.01826252471239478,0.02663134212608125
1681238791911198500,2.477198486328125,0.25904345512390137,0.02213123068213463,0.037831392139196396,-0.03536659851670265,0.028092168271541595,-0.9989795088768005,-0.012896876782178879,0.0219567883759737,-0.0011883378028869629,0.9993845024248658,-0.01356971498709481,-0.018058645173475493,0.02684151669794208
1681238791921175300,2.48717529296875,0.19603277742862701,-0.01374900620430708,0.03087441623210907,-0.03529893606901169,0.025805741548538208,-0.9990435838699341,-0.012842468917369843,-0.01587214134633541,0.028905034065246582,0.9993953019451439,-0.012423860945229096,-0.01799622484756802,0.027034680452757937
1681238791931152400,2.49715234375,0.10945874452590942,-0.05125110596418381,0.021202614530920982,-0.03562006726861,0.024303270503878593,-0.99906986951828,0.00742189958691597,-0.045589152723550797,0.03122013807296753,0.9993979191139722,-0.011665656729035051,-0.01813803264506649,0.027180560199309707
1681238791941128200,2.507128173828125,0.03638320043683052,-0.07885077595710754,0.008132086135447025,-0.036290112882852554,0.02358068712055683,-0.9990630745887756,0.029011745005846024,-0.038656242191791534,0.024011194705963135,0.9993940113595021,-0.01129380693040664,-0.01846414456049461,0.027262611510733753
1681238791951105300,2.517105224609375,-0.041701216250658035,-0.06560980528593063,0.003466760739684105,-0.03701759874820709,0.023635758087038994,-0.9990350604057312,0.03535446524620056,-0.024841075763106346,-0.0011327862739562988,0.9993862011630545,-0.011310958246834327,-0.018829043491963664,0.02729100639099032
1681238791961082400,2.527082275390625,-0.08491206914186478,-0.047691259533166885,0.0018297156784683466,-0.037579938769340515,0.024294845759868622,-0.99899822473526,0.01910162717103958,-0.029421674087643623,-0.016489386558532715,0.9993767096707686,-0.011632671740754236,-0.01911948258543674,0.02730210192201565
1681238791971059200,2.53705908203125,-0.11444319784641266,-0.025271225720643997,-0.0015882519073784351,-0.03794965520501137,0.02544754557311535,-0.9989556074142456,0.001542259007692337,-0.03644900396466255,-0.0055152177810668945,0.9993661993729029,-0.01220415756506307,-0.01932018832741808,0.027295297708270685
1681238791981036500,2.54703662109375,-0.13322457671165466,-0.014456713572144508,0.0003560721524991095,-0.03817340359091759,0.02689218521118164,-0.9989092350006104,-0.0061533041298389435,-0.03377377241849899,0.0072252750396728516,0.9993548595329825,-0.01292367318156295,-0.019451880639687336,0.02728562545769316
1681238791991013400,2.557013427734375,-0.1281227469444275,-0.015870586037635803,0.0040799700655043125,-0.03846744820475578,0.028396647423505783,-0.9988563060760498,-0.005706671625375748,-0.017105014994740486,0.006897687911987305,0.9993414343946789,-0.013671869199094805,-0.019619773713005825,0.027291759236075
1681238792000990500,2.566990478515625,-0.09800609946250916,-0.01168601494282484,0.0010359272127971053,-0.038757968693971634,0.029392670840024948,-0.9988162517547607,-0.0027763769030570984,-0.003300013020634651,0.0018832683563232422,0.9993314169204246,-0.014165983236991168,-0.019778839916322982,0.027292954626112413
1681238792010967300,2.57696728515625,-0.06408355385065079,0.0028063752688467503,-0.004272818099707365,-0.03866561874747276,0.029776681214571,-0.9988084435462952,-0.0005646534264087677,0.0017481055110692978,-0.002213895320892334,0.9993298419513965,-0.014359527542884921,-0.01973775673248275,0.027279500499438534
1681238792020943400,2.586943359375,-0.04492620378732681,0.022936303168535233,-0.0013623657869175076,-0.038115087896585464,0.029938170686364174,-0.9988247752189636,-0.0038312487304210663,0.006728827953338623,-0.005783379077911377,0.9993347123045502,-0.014448315433354493,-0.01946419632575319,0.027249104378080743
1681238792030920700,2.596920654296875,-0.028399160131812096,0.031080249696969986,0.007672940846532583,-0.037354204803705215,0.030039280652999878,-0.9988504648208618,-0.011565394699573517,0.02190176397562027,-0.004140198230743408,0.999340685952953,-0.01450884750049376,-0.019085268837216788,0.027264926852594573
1681238792040897500,2.6068974609375,-0.03716392070055008,0.013857215642929077,-0.006852289196103811,-0.03689157962799072,0.03012889064848423,-0.998865008354187,-0.011020943522453308,0.03263063728809357,-0.006597638130187988,0.999344263430525,-0.014559872558021382,-0.01885515475909923,0.02726683284941658
1681238792050874600,2.61687451171875,-0.05465955659747124,-0.006453116424381733,-0.018970470875501633,-0.036872103810310364,0.03027384728193283,-0.9988613128662109,-0.005104750394821167,0.016402916982769966,-0.0029697418212890625,0.9993453488300507,-0.014633977157130934,-0.01884636045902649,0.027194981226957186
1681238792060851700,2.626851806640625,-0.05665796250104904,-0.019227713346481323,-0.0153207927942276,-0.037108633667230606,0.03051351010799408,-0.9988452792167664,0.0027764327824115753,0.00012626498937606812,0.0029956698417663574,0.99934385582344,-0.014752340913571783,-0.018966626488810652,0.02710519537952229
1681238792070828800,2.636828857421875,-0.04571503400802612,-0.025272555649280548,-0.010640818625688553,-0.037448685616254807,0.030856970697641373,-0.998822033405304,0.007099032402038574,-0.00043081678450107574,0.002728283405303955,0.9993401546406849,-0.014921013363691827,-0.019140253439015695,0.02702770710662791
1681238792080806000,2.646805908203125,-0.041544392704963684,-0.019904691725969315,0.0010996600612998009,-0.0377330482006073,0.031244968995451927,-0.9987992644309998,0.008878756314516068,0.0031026937067508698,0.0009965300559997559,0.9993352573318764,-0.015111866984126936,-0.01928729274039091,0.026995142838772062
1681238792090781700,2.65678173828125,-0.03343639895319939,-0.030121639370918274,0.016804853454232216,-0.03798909857869148,0.03163079172372818,-0.9987773895263672,0.01116422563791275,0.01089557632803917,-0.0003985762596130371,0.9993284907691278,-0.015300448394541888,-0.019421369034216217,0.027043506370758055
1681238792100758800,2.6667587890625,-0.06873872876167297,-0.04065316542983055,0.029574977234005928,-0.03837889805436134,0.03221188858151436,-0.9987439513206482,0.016024842858314514,0.013366244733333588,0.0026807188987731934,0.9993169729484304,-0.015583556023556397,-0.019626092205703057,0.027159321512272787
1681238792110735600,2.676735595703125,-0.11412005871534348,-0.044771477580070496,0.024616969749331474,-0.03904515877366066,0.03339201956987381,-0.9986793398857117,0.02154340222477913,-0.0006923079490661621,0.008872270584106445,0.9992970582730094,-0.016161991966651777,-0.019977830528069826,0.02729915631549781
1681238792120712700,2.686712646484375,-0.14441704750061035,-0.037626851350069046,0.018864110112190247,-0.03966069966554642,0.03509705513715744,-0.9985966086387634,0.017093028873205185,-0.02408008649945259,0.020843982696533203,0.999273761589037,-0.017004487577585346,-0.020310914802667716,0.02739363103042677
1681238792130689500,2.696689453125,-0.15726493299007416,-0.02954016625881195,0.007326230406761169,-0.04004830867052078,0.036755796521902084,-0.9985215067863464,0.00521257147192955,-0.03663359582424164,0.026124656200408936,0.9992533283942056,-0.017827664112258352,-0.020528876324568734,0.027451323487296873
1681238792140666600,2.70666650390625,-0.14266455173492432,-0.02140096202492714,0.007759327068924904,-0.04017500951886177,0.038207050412893295,-0.998461902141571,-0.008607260882854462,-0.030409682542085648,0.019946277141571045,0.9992378579829763,-0.01855135987870488,-0.020612882476129087,0.027473307450749433
1681238792150643700,2.716643798828125,-0.13019563257694244,-0.01235047448426485,0.006977156735956669,-0.04013577848672867,0.03942960873246193,-0.9984159469604492,-0.014124397188425064,-0.02050858736038208,0.011462271213531494,0.9992257345574455,-0.019162931106358732,-0.020610748457725973,0.02749587795016333
1681238792160620800,2.726620849609375,-0.14741812646389008,-0.00755129661411047,0.002700802404433489,-0.03999150171875954,0.0407545268535614,-0.9983685612678528,-0.015657227486371994,-0.014204107224941254,0.0004895329475402832,0.9992132977973525,-0.019827196587239734,-0.02055749326524174,0.02751623875815857
1681238792170596600,2.7365966796875,-0.13845126330852509,-0.004149375483393669,0.00038811337435618043,-0.03978455066680908,0.042188625782728195,-0.9983172416687012,-0.014033123850822449,-0.007337421178817749,-0.011951923370361328,0.9992007930511346,-0.02054759431043824,-0.02047380647139507,0.02750536987691882
1681238792180573700,2.74657373046875,-0.13459794223308563,0.017834486439824104,0.012665285728871822,-0.0393691286444664,0.04359567165374756,-0.9982732534408569,-0.01089324802160263,-0.006013143807649612,-0.010378479957580566,0.9991894037860369,-0.021256797773945676,-0.020285991634714874,0.027519874495185764
1681238792190550800,2.75655078125,-0.11976093053817749,0.03530588746070862,0.024187453091144562,-0.03864903748035431,0.04471829533576965,-0.998251736164093,-0.011323418468236923,-0.009806059300899506,-0.0033351778984069824,0.9991818411458275,-0.021826610196606564,-0.019943210396639675,0.02759815928266296
1681238792200527600,2.766527587890625,-0.08627048134803772,0.04543420672416687,0.03167712688446045,-0.037894271314144135,0.04534004256129265,-0.9982526302337646,-0.015862368047237396,-0.004644721746444702,0.0063245296478271484,0.9991786169714133,-0.02214552678596144,-0.019577098683111714,0.02772037426254747
1681238792210504700,2.776504638671875,-0.06928297877311707,0.04632902890443802,0.0315072163939476,-0.03734579309821129,0.04553529620170593,-0.9982644319534302,-0.020622272044420242,0.0010346584022045135,0.008228421211242676,0.9991776896688604,-0.022247982978758827,-0.019308626747713786,0.027861100401216116
1681238792220481500,2.7864814453125,-0.0720500648021698,0.03254658728837967,0.03682444989681244,-0.037159331142902374,0.0457913875579834,-0.9982596635818481,-0.016536273062229156,0.009979616850614548,0.010314106941223145,0.9991723872149769,-0.022375843078975336,-0.019222267477629347,0.02800756131543284
1681238792230458600,2.796458740234375,-0.05327078700065613,0.01888537034392357,0.0376708023250103,-0.0372445285320282,0.04611053690314293,-0.9982417821884155,-0.012376975268125534,0.01890728995203972,0.008327841758728027,0.9991631707971733,-0.022531044376768925,-0.019273269791528796,0.02817784032228938
1681238792240435700,2.806435791015625,-0.05291125923395157,0.01614236831665039,0.02576940320432186,-0.0373823307454586,0.046432290226221085,-0.9982216954231262,-0.010713290423154831,0.015060756355524063,0.006797194480895996,0.9991538520274823,-0.02268717311425805,-0.01935023834490879,0.028328745523827855
1681238792250411800,2.816411865234375,-0.004625221248716116,0.02240159548819065,0.009772594086825848,-0.0375017374753952,0.04658731445670128,-0.9982100129127502,-0.01059388741850853,0.006223481148481369,0.0006971955299377441,0.9991490676534774,-0.022761736833895627,-0.01941375105366262,0.028396870668108486
1681238792260388600,2.826388671875,0.030583731830120087,0.05892786383628845,0.025343013927340508,-0.03732418641448021,0.046329304575920105,-0.9982286691665649,-0.01266353577375412,0.003658618777990341,0.0011125802993774414,0.9991515114664835,-0.022633668131874198,-0.01932294344785954,0.028473326575550448
1681238792270365700,2.83636572265625,0.021316995844244957,0.10049634426832199,0.042767807841300964,-0.03674473986029625,0.04595343768596649,-0.9982675313949585,-0.013822808861732483,0.010824643075466156,-0.0029683709144592285,0.9991564420244679,-0.022450598390894683,-0.019031407428629507,0.0286399547710069
1681238792280342800,2.8463427734375,-0.03101225383579731,0.13844601809978485,0.04362255334854126,-0.03582119941711426,0.045917678624391556,-0.9983027577400208,-0.015082042664289474,0.014369919896125793,-0.009952187538146973,0.9991593082266423,-0.022441949750148706,-0.018573556082134093,0.02884513461353988
1681238792290319600,2.856319580078125,-0.11702516674995422,0.15081267058849335,0.05095423758029938,-0.034765761345624924,0.04670822620391846,-0.9983034133911133,-0.005746249109506607,-0.005539886653423309,-0.006899833679199219,0.9991534916051875,-0.0228487221815431,-0.018061967686473945,0.02905182863965005
1681238792300296700,2.866296630859375,-0.18258939683437347,0.15757519006729126,0.061712540686130524,-0.03350111469626427,0.048349712044000626,-0.9982684850692749,0.006767794489860535,-0.030801977962255478,0.009544789791107178,0.9991374288896628,-0.023683649427350982,-0.017459640135526075,0.0293038456593092
1681238792310273500,2.8762734375,-0.22895210981369019,0.08623096346855164,0.026711679995059967,-0.0325012132525444,0.050660260021686554,-0.9981869459152222,0.01763923093676567,-0.043122295290231705,0.009249627590179443,0.9991109272279836,-0.02485057000386594,-0.0169990774800948,0.02951070419160569
1681238792320250600,2.886250732421875,-0.14739014208316803,0.0004678536206483841,-0.024440454319119453,-0.032382093369960785,0.0527527816593647,-0.9980824589729309,0.025851406157016754,-0.031848110258579254,-0.04598492383956909,0.9990858278901291,-0.025899887284272383,-0.01696994608731596,0.029474488171744258
1681238792330226700,2.896226806640625,-0.013907968997955322,-0.05183263123035431,-0.031301289796829224,-0.0329548716545105,0.053559109568595886,-0.9980207681655884,0.03307701647281647,0.00494321808218956,-0.03777635097503662,0.9990748660456565,-0.026297615760483596,-0.017264562554332716,0.02932410495628629
1681238792340203800,2.906203857421875,0.08843287825584412,-0.04195859283208847,-0.03635105863213539,-0.033763106912374496,0.05311038717627525,-0.9980177283287048,0.027156125754117966,0.030736789107322693,-0.004774630069732666,0.999078612948192,-0.02606412497405644,-0.01765810938930747,0.029169803183734935
1681238792350180600,2.9161806640625,0.14121194183826447,0.0025857058353722095,-0.04451524466276169,-0.034237559884786606,0.051968395709991455,-0.9980616569519043,0.007488977164030075,0.04307873174548149,0.022201061248779297,0.9990951111072182,-0.025489265730618424,-0.01787365787128245,0.028981019812757507
1681238792360157700,2.92615771484375,0.16797411441802979,0.05436677485704422,-0.03207092732191086,-0.03416629508137703,0.05046456307172775,-0.9981412887573242,-0.018262829631567,0.038570597767829895,0.06012248992919922,0.9991205225700229,-0.024741221305766118,-0.01781116266618606,0.028792041709554003
1681238792370134800,2.936134765625,0.14235185086727142,0.08143993467092514,-0.010246587917208672,-0.03353765234351158,0.048860177397727966,-0.9982424378395081,-0.02923692762851715,0.009871028363704681,0.08863550424575806,0.99914884167634,-0.02394927088417221,-0.017470756460892932,0.028688108457635867
1681238792380111600,2.946111572265625,0.07825851440429688,0.07752961665391922,-0.006512553431093693,-0.03270291909575462,0.047606755048036575,-0.9983306527137756,-0.02283899486064911,-0.022353332489728928,0.06791073083877563,0.9991720161027817,-0.023334729482090057,-0.017034027548872097,0.028646754720550175
1681238792390088700,2.956088623046875,-0.021524010226130486,0.039947882294654846,0.0076011354103684425,-0.03200865536928177,0.0471675880253315,-0.9983739852905273,-0.0047344304621219635,-0.03615061938762665,0.01752382516860962,0.9991830562164563,-0.023124960237359306,-0.016680257870183183,0.028640208297149333
1681238792400064800,2.966064697265625,-0.1557527631521225,0.00944339856505394,0.029918575659394264,-0.03164438158273697,0.047879159450531006,-0.9983517527580261,0.013715382665395737,-0.04230957478284836,-0.020370781421661377,0.9991753458812113,-0.023484849371881413,-0.016510185407749765,0.02871548978422293
1681238792410041900,2.976041748046875,-0.27038079500198364,-0.0558362677693367,0.024066545069217682,-0.03168104588985443,0.05013100802898407,-0.998240053653717,0.0271492600440979,-0.05158046633005142,-0.03247588872909546,0.9991436759121658,-0.024608779374699262,-0.01656453938448236,0.028844661326868772
1681238792420018700,2.986018798828125,-0.28285470604896545,-0.0527353398501873,0.02405286207795143,-0.03211374580860138,0.052971210330724716,-0.9980795383453369,0.02381303906440735,-0.05500049889087677,-0.021817922592163086,0.9991005389723502,-0.026021954372762196,-0.01682528652320173,0.028947866018819376
1681238792429995800,2.995995849609375,-0.26602405309677124,-0.07092340290546417,0.009852088987827301,-0.03272451460361481,0.05594119057059288,-0.9978976249694824,0.010843493044376373,-0.04869314283132553,0.004733622074127197,0.9990527891109692,-0.027498110192048245,-0.017176629415295287,0.029023879533740003
1681238792439972600,3.00597265625,-0.1179184541106224,-0.031288426369428635,0.005581127479672432,-0.03333572670817375,0.05798477679491043,-0.9977607131004333,-0.003880385309457779,-0.016297634690999985,-0.025051116943359375,0.9990180510849609,-0.028511815678669773,-0.01751302879237212,0.0290395148402571
1681238792449949700,3.01594970703125,-0.038315508514642715,0.01916755735874176,0.030638277530670166,-0.03355829045176506,0.058736402541399,-0.997709333896637,-0.012736797332763672,0.035929255187511444,0.013685286045074463,0.9990026062899284,-0.02888324898849952,-0.01763804687752281,0.029127919335643116
1681238792459926500,3.025926513671875,0.02152848429977894,0.03627261519432068,0.009349617175757885,-0.033342521637678146,0.05877702683210373,-0.9977141618728638,-0.020169977098703384,0.05567927658557892,-0.0059174299240112305,0.9990008532020948,-0.028904891521593444,-0.017533658797084527,0.029229656340851746
1681238792469903600,3.035903564453125,0.09647916257381439,0.015835784375667572,-0.0001602647826075554,-0.03309142217040062,0.058049388229846954,-0.9977651238441467,-0.016484305262565613,0.0656690001487732,-0.02996009588241577,0.9990133358487339,-0.028544120613227742,-0.017397559920734794,0.029241832265941597
1681238792479879700,3.045879638671875,0.13054601848125458,0.005461919121444225,0.02629176527261734,-0.032929763197898865,0.05676550418138504,-0.9978443384170532,-0.004240572452545166,0.056485358625650406,-0.0026897192001342773,0.9990307672973672,-0.027902507638499423,-0.01729984171163792,0.029323287055292604
1681238792489856800,3.055856689453125,0.1030571311712265,0.021633699536323547,0.031203432008624077,-0.032690711319446564,0.05543715879321098,-0.9979268908500671,0.002768300473690033,0.040556009858846664,0.01925867795944214,0.9990467366053454,-0.02723849935577989,-0.01716475402171545,0.02948168087179056
1681238792499833900,3.065833740234375,0.03221834823489189,0.03602265194058418,0.02741633541882038,-0.03230983018875122,0.054647497832775116,-0.9979828000068665,-0.00380764901638031,0.026605680584907532,0.02233588695526123,0.9990562878871909,-0.026846342995051457,-0.01696642496379502,0.029631572759925506
1681238792509810700,3.075810791015625,-0.032671969383955,0.022838139906525612,0.026550009846687317,-0.03195219859480858,0.054568417370319366,-0.9979986548423767,-0.013778310269117355,0.0008516311645507812,0.0008521080017089844,0.9990565625784084,-0.026809885242043585,-0.016789729877093682,0.029757293397652325
1681238792519787800,3.085787841796875,-0.06280148029327393,0.007232815492898226,0.01830567792057991,-0.031806718558073044,0.055047471076250076,-0.9979770183563232,-0.008796840906143188,-0.02294285222887993,-0.020348787307739258,0.9990481403528214,-0.02705006210313097,-0.016726924914496358,0.02985735217026325
1681238792529764600,3.0957646484375,-0.08003931492567062,-0.000993954949080944,0.009458656422793865,-0.031809356063604355,0.05586518719792366,-0.9979314804077148,0.0048471540212631226,-0.023134954273700714,-0.020928382873535156,0.9990348676947697,-0.027458154163974857,-0.016742397441017257,0.02992046040699971
1681238792539741700,3.10574169921875,-0.07703746855258942,-0.00269294623285532,-0.004398735705763102,-0.031912341713905334,0.056795235723257065,-0.9978756904602051,0.011190980672836304,-0.009813293814659119,-0.017169475555419922,0.9990205303357367,-0.02792183728656038,-0.016808421969657317,0.02993313216649113
1681238792549718500,3.115718505859375,-0.04564226418733597,0.003577200695872307,-0.010798310860991478,-0.03198913112282753,0.05755668133497238,-0.9978296160697937,0.008551709353923798,0.003417566418647766,-0.008472263813018799,0.9990103798456572,-0.028302521582577976,-0.01685715696953691,0.029888114451470466
1681238792559694800,3.12569482421875,-0.006795098539441824,0.004655035212635994,-0.017107591032981873,-0.03196486085653305,0.05797947943210602,-0.9978058934211731,0.0036903992295265198,0.00738929957151413,0.0035737156867980957,0.9990063061441677,-0.028515564466151232,-0.016849603091551174,0.02982335157759909
1681238792569671700,3.135671630859375,0.01589689776301384,0.005963712930679321,-0.025677908211946487,-0.031927239149808884,0.058041833341121674,-0.9978035092353821,0.0009061954915523529,0.004290446639060974,0.01797562837600708,0.9990088693390222,-0.02854912740400802,-0.01682867293551613,0.029716295282458022
1681238792579648800,3.145648681640625,0.027488039806485176,0.006716961041092873,-0.015517816878855228,-0.03191174939274788,0.05791155993938446,-0.9978115558624268,0.0010127760469913483,0.006053410470485687,0.029229402542114258,0.9990138051915334,-0.028485818634931426,-0.016816140118625936,0.02961762640752646
1681238792589625600,3.15562548828125,0.027428384870290756,0.005100955255329609,-0.016954591497778893,-0.03199706971645355,0.05761305242776871,-0.997826099395752,0.00050300732254982,0.0034527480602264404,0.026161670684814453,0.9990199226826049,-0.028336571312199056,-0.01685197932178392,0.029535261772223514
1681238792599602700,3.165602783203125,0.012080155313014984,0.007315639406442642,-0.013473324477672577,-0.03200048580765724,0.05724909156560898,-0.9978469610214233,-0.002331715077161789,-0.008603941649198532,0.01739346981048584,0.9990275570002957,-0.0281557793149635,-0.016845870395782055,0.029452085560871425
1681238792609579800,3.175579833984375,-0.021854907274246216,0.012464062310755253,-0.006445241626352072,-0.03184545785188675,0.05714548006653786,-0.9978578090667725,-0.0055232420563697815,-0.01530575379729271,0.010171711444854736,0.9990317922282461,-0.028107063967907263,-0.016765291883231725,0.029399419995524846
1681238792619556600,3.185556640625,-0.06404124200344086,0.01776907965540886,-0.0104245375841856,-0.03158089518547058,0.05748249217867851,-0.9978469014167786,-0.007527302950620651,-0.014208436012268066,0.0053694844245910645,0.9990305605285493,-0.028280365682119456,-0.016636624072176375,0.029350663210828288
1681238792629533700,3.19553369140625,-0.097073495388031,0.021408021450042725,-0.011822164058685303,-0.031245015561580658,0.058332014828920364,-0.9978081583976746,-0.005772730335593224,-0.017819799482822418,0.0022332072257995605,0.9990226237125752,-0.02871134065855463,-0.016479637931153177,0.02929237763712731
1681238792639510500,3.205510498046875,-0.10131041705608368,0.018551303073763847,-0.008460971526801586,-0.03098185546696186,0.05940959230065346,-0.9977527856826782,-0.00435742549598217,-0.02139982208609581,-0.0008739233016967773,0.999010480002552,-0.029255485147795066,-0.016362242790376454,0.02922953885146785
1681238792649486800,3.21548681640625,-0.08413808792829514,0.024627838283777237,-0.003365545766428113,-0.03079415112733841,0.06036954000592232,-0.9977009892463684,-0.0018748417496681213,-0.013601221144199371,0.0009053349494934082,0.9989988444510809,-0.02973932006439916,-0.016281410382380717,0.029188119318717096
1681238792659463700,3.225463623046875,-0.0824837014079094,0.03473682329058647,-0.00466601736843586,-0.030519314110279083,0.061273179948329926,-0.9976543188095093,-0.001752946525812149,-0.003365948796272278,0.007221639156341553,0.9989880440556559,-0.030196040796619212,-0.016156489887191205,0.0291588938024702
1681238792669440800,3.235440673828125,-0.06223275884985924,0.042649876326322556,0.00008879066444933414,-0.030165625736117363,0.06200137734413147,-0.9976201057434082,-0.0047769248485565186,0.005763031542301178,0.006012439727783203,0.998980088321301,-0.030565985474129576,-0.015989697234560365,0.029136180012115206
1681238792679417600,3.24541748046875,-0.03768886253237724,0.061032555997371674,0.00602361187338829,-0.029721738770604134,0.06236226484179497,-0.9976109266281128,-0.007433338090777397,0.0061040520668029785,0.007666468620300293,0.9989776178143583,-0.03075291468133335,-0.015773190975881257,0.02914179742916061
1681238792689394700,3.255394775390625,-0.021885668858885765,0.07648129016160965,0.006951723247766495,-0.02917427383363247,0.062423717230558395,-0.9976232647895813,-0.005829311907291412,0.0026246309280395508,0.009631931781768799,0.9989801782813269,-0.030791239822294616,-0.015500847270247756,0.029160954501323097
1681238792699371800,3.265371826171875,-0.012746896594762802,0.06972511112689972,0.008390296250581741,-0.02859366685152054,0.06240209937095642,-0.997641384601593,-0.004609381780028343,0.003943245857954025,0.007208704948425293,0.9989842748753589,-0.03078851886067605,-0.015210605820750648,0.029177191059302825
1681238792709348600,3.2753486328125,-0.009027260355651379,0.05512193590402603,0.014004506170749664,-0.028087595477700233,0.062286626547575,-0.9976630210876465,-0.001880589872598648,0.00845324620604515,0.004605770111083984,0.9989885070016699,-0.030737401486917847,-0.014956990005816682,0.02921727601938626
1681238792719325700,3.28532568359375,0.016646644100546837,0.04588998109102249,0.009368658997118473,-0.027691228315234184,0.062023408710956573,-0.9976904988288879,0.002697410061955452,0.010074499994516373,-0.0024773478507995605,0.9989938724025866,-0.030610602623229576,-0.014756391856285009,0.029268641307656183
1681238792729301800,3.2953017578125,0.047813884913921356,0.04528011754155159,0.014027060009539127,-0.0273125097155571,0.061540622264146805,-0.9977307915687561,0.004592252895236015,0.012815583497285843,-0.011012434959411621,0.9990025709451414,-0.030373720613199186,-0.014561232443885,0.029316583669349763
1681238792739278800,3.30527880859375,0.057564884424209595,0.05231405794620514,0.01657009683549404,-0.0268940981477499,0.060973040759563446,-0.9977770447731018,0.004768930375576019,0.0205395370721817,-0.009196221828460693,0.9990120564270826,-0.030094715399786948,-0.014345541669072115,0.02938456646212939
1681238792749255700,3.315255615234375,0.0753774344921112,0.05863240733742714,0.010562004521489143,-0.02647653967142105,0.06039370596408844,-0.9978234171867371,0.0034511052072048187,0.02937387302517891,-0.012842416763305664,0.9990219020579865,-0.029809954123279456,-0.014129851390878292,0.029445224551632912
1681238792759232800,3.325232666015625,0.09373953193426132,0.0516190268099308,0.012816171161830425,-0.026095760986208916,0.05965343862771988,-0.9978780150413513,0.004565684124827385,0.025475475937128067,-0.013032019138336182,0.9990337862022532,-0.029444202317535056,-0.013930007880466012,0.029502185071879038
1681238792769209600,3.335209716796875,0.11614923179149628,0.04492410644888878,0.015347239561378956,-0.0257550235837698,0.05868946388363838,-0.9979439973831177,0.008466890081763268,0.018230218440294266,-0.011104464530944824,0.9990482431943815,-0.028965756639427284,-0.01374719714668736,0.029572901971685515
1681238792779186700,3.345186767578125,0.13472335040569305,0.03469213843345642,0.0187772735953331,-0.02547844685614109,0.0575089156627655,-0.998019814491272,0.014003915712237358,0.017030399292707443,-0.005169272422790527,0.99906481201946,-0.028377884752079637,-0.01359347501212257,0.02965473632281121
1681238792789163800,3.355163818359375,0.11783145368099213,0.02101973444223404,0.019359974190592766,-0.025259876623749733,0.056391194462776184,-0.9980891346931458,0.01598260924220085,0.014547046273946762,0.006466269493103027,0.9990792803574926,-0.027820453035165383,-0.013470050224931184,0.029751827384821634
1681238792799140600,3.365140625,0.0991155207157135,0.00631349254399538,0.022192828357219696,-0.02510780468583107,0.055476050823926926,-0.998144268989563,0.016181491315364838,0.002202298492193222,0.0031338930130004883,0.9990899228809613,-0.02736334703834623,-0.013383075471872993,0.02985721209227126
1681238792809117700,3.37511767578125,0.08036474138498306,-0.010711563751101494,0.01963699236512184,-0.02509630098938942,0.054748307913541794,-0.9981847405433655,0.016383610665798187,-0.011123307049274445,0.006378769874572754,0.9990964594954982,-0.026997750617179135,-0.013369577018997141,0.029978303481974913
1681238792819093800,3.38509375,0.05920073017477989,-0.02307794988155365,0.023653771728277206,-0.02522393688559532,0.05433139577507973,-0.9982042908668518,0.01703004725277424,-0.01906820759177208,0.010014653205871582,0.9990976713380769,-0.02678558350484552,-0.013430390611445171,0.03010212910971905
1681238792829070800,3.39507080078125,0.03264635056257248,-0.03380782529711723,0.02296161651611328,-0.02546226605772972,0.05422176420688629,-0.998204231262207,0.01598663628101349,-0.018149860203266144,0.012944221496582031,0.9990939682615311,-0.026725541815261513,-0.013551135228048669,0.030222928032705043
1681238792839047700,3.405047607421875,0.01651202142238617,-0.03992298245429993,0.024246342480182648,-0.0257538091391325,0.054288070648908615,-0.9981931447982788,0.011486917734146118,-0.017209086567163467,0.008630156517028809,0.9990873972008238,-0.02675261863063357,-0.01370134291592621,0.03034970462089957
1681238792849024800,3.415024658203125,0.006525434087961912,-0.04108251631259918,0.02756863459944725,-0.026025354862213135,0.054411351680755615,-0.9981793761253357,0.008782999590039253,-0.01670675352215767,0.008418023586273193,0.9990796531339275,-0.02680826772891585,-0.013842825373397358,0.030490897367684337
1681238792859001600,3.425001708984375,-0.0011057874653488398,-0.04458867758512497,0.02949586510658264,-0.026228828355669975,0.054578009992837906,-0.9981649518013,0.003783229738473892,-0.016110479831695557,0.014140963554382324,0.9990712812385045,-0.02688641412105672,-0.01395134787582364,0.030646575274911575
1681238792868978700,3.434978759765625,-0.0086505226790905,-0.04201606288552284,0.02634401246905327,-0.02640126273036003,0.05481386557221413,-0.9981474876403809,0.0003851037472486496,-0.01256214827299118,0.006783962249755859,0.9990623074904407,-0.026999729807577394,-0.014045251940866537,0.030794754585504694
1681238792878955500,3.44495556640625,-0.009660260751843452,-0.03611881285905838,0.023675991222262383,-0.026521500200033188,0.05494267866015434,-0.9981372356414795,0.0025957971811294556,-0.0063280463218688965,0.003264188766479492,0.9990554577565665,-0.02706039584251751,-0.014111143779350029,0.03093320624862699
1681238792888932600,3.4549326171875,-0.026262406259775162,-0.03107611835002899,0.024768153205513954,-0.02657763473689556,0.05501099303364754,-0.9981319904327393,-0.0009033661335706711,-0.003451414406299591,0.004983186721801758,0.9990502834389572,-0.027091936179761005,-0.014143699387865291,0.031059038759640768
1681238792898909700,3.46490966796875,-0.03896145895123482,-0.035386018455028534,0.022145390510559082,-0.02662810869514942,0.05515901744365692,-0.9981224536895752,-0.002516103908419609,-0.0033247806131839752,0.0021202564239501953,0.9990441746695183,-0.02716351140574357,-0.014174556883371563,0.031179845989623492
1681238792908885800,3.4748857421875,-0.046171169728040695,-0.040871597826480865,0.02435501478612423,-0.02674388699233532,0.055419906973838806,-0.9981049299240112,-0.0026139449328184128,-0.0028837695717811584,0.0015839338302612305,0.9990360604202537,-0.02729061367513758,-0.014239755332329535,0.0312959550599363
1681238792918862800,3.48486279296875,-0.035646289587020874,-0.03953101485967636,0.017282091081142426,-0.026955053210258484,0.05568695813417435,-0.9980843663215637,0.0006032008677721024,-0.0032423734664916992,0.0011361241340637207,0.9990275941002487,-0.02741945746793267,-0.014352486842520691,0.03140120199657281
1681238792928839700,3.494839599609375,-0.004916604608297348,-0.03599460422992706,0.014066590927541256,-0.027183586731553078,0.055732861161231995,-0.9980756044387817,0.0004960410296916962,0.0034561119973659515,-0.0012682676315307617,0.999022825065126,-0.027437693846125055,-0.014469747138295309,0.03148274678581981
1681238792938816800,3.504816650390625,0.0029741753824055195,-0.03028627671301365,0.01173377875238657,-0.027429500594735146,0.05558444932103157,-0.9980771541595459,-0.0028896331787109375,0.013095486909151077,-0.0047152042388916016,0.9990210095202545,-0.027358589949398198,-0.014592262397491923,0.03155228383543254
1681238792948793600,3.514793701171875,0.005756113212555647,-0.021107159554958344,0.014896814711391926,-0.027654947713017464,0.0554194413125515,-0.9980800747871399,-0.004617314785718918,0.015473023056983948,-0.005475163459777832,0.9990196328642532,-0.027271499129121773,-0.01470423111004505,0.03162061872860661
1681238792958770700,3.524770751953125,0.015065193176269531,-0.016974732279777527,0.007906283251941204,-0.02778654918074608,0.05526718869805336,-0.9980849027633667,-0.005080806091427803,0.012390408664941788,-0.004478573799133301,0.9990190772827994,-0.027192433531236817,-0.014769123907396564,0.031676545649650396
1681238792968747500,3.53474755859375,0.016339248046278954,-0.011410323902964592,0.008039175532758236,-0.02791674993932247,0.05507713556289673,-0.9980917572975159,-0.00321110337972641,0.005500383675098419,0.0006857514381408691,0.9990195414818864,-0.02709471288601549,-0.014832253521733499,0.03171602338510323
1681238792978724600,3.544724609375,0.031544435769319534,-0.00428658165037632,0.008755898103117943,-0.027998583391308784,0.0548236109316349,-0.9981034398078918,-0.003831174224615097,0.0027174092829227448,0.006190598011016846,0.9990212174870802,-0.026965999832856937,-0.014870148740302925,0.03175488553685529
1681238792988701700,3.55470166015625,0.03043682500720024,0.0002975175157189369,0.013100579380989075,-0.02802756428718567,0.05447588860988617,-0.9981216788291931,-0.006091011688113213,0.0028515085577964783,0.011244237422943115,0.9990239191895499,-0.0267907082694625,-0.014880582769970955,0.03181236513454372
1681238792998677800,3.564677734375,0.012333821505308151,-0.006642679683864117,0.013047033920884132,-0.028027502819895744,0.054245490580797195,-0.998134195804596,-0.0037564747035503387,-0.0012821108102798462,0.007503151893615723,0.9990248323027504,-0.02667437878960126,-0.014878721415298115,0.03188304908668748
1681238793008654800,3.57465478515625,0.0080525241792202,-0.019363269209861755,0.007485287729650736,-0.02812233939766884,0.0541936419904232,-0.9981343746185303,-0.0000758245587348938,-0.003961578011512756,0.0022237300872802734,0.9990232084005723,-0.026646164675803764,-0.014926693669051614,0.03193495689031682
1681238793018631700,3.584631591796875,-0.001364347175695002,-0.02386891096830368,0.006863073445856571,-0.02835872583091259,0.05428996682167053,-0.9981224536895752,0.0059894174337387085,-0.0026235803961753845,0.0024712085723876953,0.999019098588736,-0.026690077739656225,-0.0150474404196681,0.031971340287060376
1681238793028609000,3.594609130859375,-0.008759412914514542,-0.029192037880420685,0.00530725484713912,-0.02868250571191311,0.054492563009262085,-0.9981021285057068,0.0067557040601968765,-0.0032686851918697357,0.0028934478759765625,0.9990129515798011,-0.026785805330712426,-0.015213559638983394,0.0320053870400664
1681238793038585900,3.6045859375,-0.00602534506469965,-0.033190347254276276,0.007802004460245371,-0.029043888673186302,0.05468772351741791,-0.9980810284614563,0.00636940635740757,-0.00166330486536026,0.004077732563018799,0.9990063450428968,-0.02687710374081771,-0.01539855424963377,0.03204620503983694
1681238793048563000,3.61456298828125,-0.011422772891819477,-0.041616324335336685,0.006938607431948185,-0.029425155371427536,0.05481619015336037,-0.998062789440155,0.004782289266586304,-0.0018985830247402191,0.0032507777214050293,0.9990005762307551,-0.026934783526927047,-0.015592282449675634,0.032082000497114675
1681238793058539800,3.624539794921875,-0.0106072798371315,-0.052925970405340195,0.004748373758047819,-0.029932809993624687,0.05496346950531006,-0.9980396032333374,0.006159696727991104,0.0006549395620822906,-0.004386484622955322,0.9989936894568661,-0.026999860454462506,-0.015849518701105576,0.03211736120972241
1681238793068516900,3.634516845703125,-0.004778419621288776,-0.052617575973272324,0.016007952392101288,-0.030526431277394295,0.05507172644138336,-0.9980156421661377,0.007699362933635712,0.0022098906338214874,-0.0023505091667175293,0.9989860009951169,-0.027043741076023697,-0.01614960897527712,0.03217074314975411
1681238793078494000,3.644493896484375,-0.020113665610551834,-0.034682728350162506,0.01935722678899765,-0.030967388302087784,0.05517418310046196,-0.9979963898658752,0.0061261579394340515,-0.0025159791111946106,0.01169884204864502,0.9989783722619142,-0.02708656439211427,-0.01637418380935993,0.03225809722313429
1681238793088470000,3.654469970703125,-0.03734405338764191,-0.025655679404735565,0.017815522849559784,-0.031218720600008965,0.05541694164276123,-0.9979751110076904,-0.001419752836227417,-0.009747259318828583,0.01364588737487793,0.998969861690638,-0.027202414078347826,-0.01650651683441239,0.03235566199137057
1681238793098446800,3.66444677734375,-0.054792385548353195,-0.028298333287239075,0.01698516681790352,-0.03134704381227493,0.055841997265815735,-0.9979473948478699,-0.0081731416285038,-0.012079659849405289,0.013023078441619873,0.9989600494884231,-0.02741157072151697,-0.01658011992571091,0.032444512217518734
1681238793108424000,3.674423828125,-0.0605810321867466,-0.04434600844979286,0.014803770929574966,-0.03158743306994438,0.05638716742396355,-0.9979091882705688,-0.006162732839584351,-0.015356156975030899,0.007476449012756348,0.9989478177271366,-0.027679132985461968,-0.016711613399317912,0.03252678722403641
1681238793118401000,3.684401123046875,-0.057815369218587875,-0.04397774860262871,0.006958547979593277,-0.03191147372126579,0.05697982758283615,-0.9978652000427246,0.001332942396402359,-0.009006071835756302,-0.0005783438682556152,0.998934739703329,-0.027969399126156647,-0.016885277012483338,0.03259108657376287
1681238793128377900,3.6943779296875,-0.0414116308093071,-0.032820433378219604,0.005920181050896645,-0.0322129912674427,0.057428449392318726,-0.997829794883728,0.0043199993669986725,-0.0003909654915332794,-0.0012699365615844727,0.9989249737427591,-0.028188561255362454,-0.017044299686637458,0.032618921110164595
1681238793138355000,3.70435498046875,-0.03147870674729347,-0.012114569544792175,0.0038477759808301926,-0.03230586647987366,0.05776837840676308,-0.9978071451187134,-0.0012633875012397766,0.0045791566371917725,-0.0010636448860168457,0.9989184677727809,-0.028356741379108895,-0.017097101428761845,0.032643962084858695
1681238793148331800,3.714331787109375,-0.025454901158809662,0.0030177775770425797,-0.00040582497604191303,-0.03220658376812935,0.05804405361413956,-0.9977943897247314,-0.011723391711711884,0.00845387578010559,0.0013039112091064453,0.9989149386946073,-0.028496152982969012,-0.017052257965434,0.032652228119092616
1681238793158308900,3.724308837890625,-0.020291965454816818,0.009145816788077354,-0.004253493621945381,-0.03203791379928589,0.05823493376374245,-0.997788667678833,-0.014837004244327545,0.0035327672958374023,0.006104767322540283,0.9989140938220207,-0.028594667333116535,-0.016970599039748634,0.03263594043628388
1681238793168286000,3.734285888671875,-0.01945386826992035,0.014409555122256279,-0.0011093653738498688,-0.031932175159454346,0.058316029608249664,-0.997787356376648,-0.012699704617261887,-0.00025620684027671814,0.00959765911102295,0.9989144731199983,-0.02863732997797285,-0.0169184211647926,0.03261363646624503
1681238793178262000,3.744261962890625,-0.03294547647237778,0.017101529985666275,-0.0014411455485969782,-0.03188641741871834,0.05843951925635338,-0.9977815747261047,-0.006077375262975693,0.0007036738097667694,0.009073078632354736,0.9989134985238358,-0.0287001254551354,-0.016897141527184745,0.03259827075837844
1681238793188238800,3.75423876953125,-0.05472826957702637,0.01316671073436737,0.000006548827514052391,-0.03182051330804825,0.05872312933206558,-0.9977670311927795,-0.002191249281167984,-0.0013957321643829346,0.008188784122467041,0.9989102300982553,-0.02884327791885815,-0.01686859561191634,0.03258836237280664
1681238793198216000,3.7642158203125,-0.0744335949420929,0.009510190226137638,0.0032691543456166983,-0.031678248196840286,0.059280090034008026,-0.9977385997772217,-0.001417987048625946,-0.008178282529115677,0.006314098834991455,0.9989033469747934,-0.029124388077534157,-0.01680649847273408,0.032582453837956375
1681238793208193000,3.774193115234375,-0.08097352087497711,-0.0012119626626372337,0.003009496023878455,-0.03160817548632622,0.06004510819911957,-0.9976950883865356,-0.0004046820104122162,-0.01469586044549942,0.00210493803024292,0.9988921122735976,-0.02950819042837977,-0.01678444310594882,0.03259295726637846
1681238793218169900,3.784169921875,-0.06476645916700363,-0.0029962798580527306,-0.0003630644641816616,-0.03166517987847328,0.06079801544547081,-0.9976477026939392,0.0031618401408195496,-0.012351233512163162,0.000333249568939209,0.9988801749457473,-0.029884068923471622,-0.016825464889774787,0.03259372066492261
1681238793228147000,3.79414697265625,-0.036437612026929855,0.004429944790899754,-0.003742615692317486,-0.03184088319540024,0.061363235116004944,-0.9976074695587158,0.002666160464286804,-0.004905588924884796,0.0005677342414855957,0.9988708473167724,-0.030164502245112898,-0.016922051477926657,0.032571445806364153
1681238793238123800,3.804123779296875,-0.013603336177766323,0.01250922866165638,-0.0035750698298215866,-0.031955692917108536,0.061628226190805435,-0.9975875020027161,-0.0012931302189826965,0.006593950092792511,0.0019209980964660645,0.9988665270498619,-0.0302956579364922,-0.01698320440688114,0.03254945934478983
1681238793248101000,3.81410107421875,-0.000267291150521487,0.025675632059574127,-0.006822795141488314,-0.03194822371006012,0.06167769804596901,-0.9975846409797668,-0.005908753722906113,0.015303019434213638,0.004039168357849121,0.9988668537895717,-0.030321090502621585,-0.01697930545758331,0.03251706752692109
1681238793258078000,3.824077880859375,0.004452595952898264,0.03107322007417679,-0.007734212093055248,-0.031757961958646774,0.06162597984075546,-0.9975939393043518,-0.005824357271194458,0.014958012849092484,0.006199896335601807,0.998870606047657,-0.030298995061157286,-0.016881957373661244,0.03247336633845667
1681238793268054000,3.834053955078125,-0.0017863914836198092,0.03283117339015007,0.0017698111478239298,-0.03147411718964577,0.06156621500849724,-0.997606635093689,-0.005024828016757965,0.00804450735449791,0.009188055992126465,0.998874575196717,-0.030274064260586278,-0.016738215850777966,0.032447567663914496
1681238793278030800,3.84403076171875,-0.01072565745562315,0.02924432046711445,0.002183017320930958,-0.031174279749393463,0.061570074409246445,-0.9976158142089844,-0.0029442962259054184,0.002181272953748703,0.007961273193359375,0.9988767987280942,-0.030280733318159885,-0.01658841993534686,0.032451263793617874
1681238793288008000,3.854008056640625,-0.020888546481728554,0.019977586343884468,0.0009638222400099039,-0.030941983684897423,0.06160170957446098,-0.9976210594177246,0.0027133040130138397,-0.0022448934614658356,-0.00047153234481811523,0.9988779705595691,-0.030300211754880502,-0.016472891398058683,0.03245575217023387
1681238793297985000,3.863985107421875,-0.01495575625449419,0.015605155378580093,0.0028710782062262297,-0.030731281265616417,0.06166376918554306,-0.9976237416267395,0.004242103546857834,-0.005435004830360413,-0.004481911659240723,0.9988785088807264,-0.030334572883748166,-0.016368665828065745,0.03246025159681077
1681238793307961900,3.8739619140625,-0.01955237239599228,0.016590258106589317,0.008295671083033085,-0.030547812581062317,0.06179273873567581,-0.9976214170455933,0.007232459262013435,-0.0034277401864528656,-0.0035382509231567383,0.9988771496724639,-0.030401636716383764,-0.016279819194293672,0.03248617858643414
1681238793317939000,3.88393896484375,-0.018932821229100227,0.015140378847718239,0.008261033333837986,-0.03041531704366207,0.062041569501161575,-0.9976100325584412,0.00706944614648819,0.004517395049333572,-0.003595411777496338,0.9988732399217848,-0.03052779118220285,-0.01621862500128692,0.032517634672963994
1681238793327916000,3.893916015625,-0.0187075175344944,0.002985179889947176,0.008605912327766418,-0.030409814789891243,0.06235416233539581,-0.9975907206535339,0.005156597122550011,0.007256563752889633,-0.0010512471199035645,0.998867240589019,-0.030683774218702144,-0.01622210508787893,0.03255211065667216
1681238793337893000,3.90389306640625,-0.00715232826769352,-0.004697080701589584,0.013260984793305397,-0.03051224909722805,0.06261499226093292,-0.9975712299346924,0.006418699398636818,0.004951059818267822,0.0017979145050048828,0.9988608356333217,-0.030811894551762028,-0.01627913624278916,0.03259998558813294
1681238793347870000,3.913869873046875,0.019893404096364975,-0.010460161603987217,0.011069203726947308,-0.030681097880005836,0.0625912994146347,-0.9975675344467163,0.008998436853289604,0.003006353974342346,0.008340299129486084,0.9988580634494605,-0.03079641299715975,-0.016364909456925574,0.032655508140366454
1681238793357847000,3.923846923828125,0.04268670082092285,-0.011301879771053791,0.0073502156883478165,-0.030834216624498367,0.06230311468243599,-0.997580885887146,0.008052922785282135,0.0027299709618091583,0.006553053855895996,0.9988596002536053,-0.030648779025072306,-0.016438430802962794,0.032711791126521415
1681238793367822800,3.93382275390625,0.05959537625312805,-0.010375366546213627,0.007408538833260536,-0.030920332297682762,0.06175914406776428,-0.9976119995117188,0.00530090369284153,0.007927872240543365,0.0019302964210510254,0.9988658310309293,-0.030374318607440925,-0.01647394393502673,0.032761004690089544
1681238793377800000,3.943800048828125,0.06041363254189491,-0.013049020431935787,0.0035804444923996925,-0.030975380912423134,0.061132580041885376,-0.9976488947868347,0.0036927424371242523,0.01157568022608757,-0.0005505681037902832,0.9988738559051397,-0.030059266091745442,-0.016492088020085973,0.0327960436202082
1681238793387776800,3.95377685546875,0.06212098151445389,-0.010315285064280033,-0.0004377329023554921,-0.030997086316347122,0.06051302328705788,-0.9976860284805298,0.0037297047674655914,0.01053202897310257,-0.002359747886657715,0.9988825389520654,-0.02974852830782789,-0.016493174821718578,0.0328151219579191
1681238793397753900,3.96375390625,0.04749104380607605,-0.004006683826446533,-0.0007641699630767107,-0.030971502885222435,0.05998882278800011,-0.9977184534072876,0.0021629873663187027,0.008935254067182541,0.0006328821182250977,0.9988904103068326,-0.029486484527847086,-0.01647184555313125,0.03282238720930604
1681238793407731000,3.97373095703125,0.02101975493133068,-0.011554614640772343,-0.004039858002215624,-0.030969463288784027,0.059718310832977295,-0.9977347254753113,0.0010623149573802948,0.004490796476602554,0.0015494823455810547,0.998894499807423,-0.02935118344115575,-0.016466237983219684,0.03281988762358577
1681238793417708000,3.9837080078125,0.013202977366745472,-0.019905807450413704,-0.0011868802830576897,-0.031041814014315605,0.05961219221353531,-0.9977388381958008,-0.0007574260234832764,-0.002010136842727661,-0.0008268356323242188,0.9988956508347586,-0.02929699509809243,-0.016500495980604,0.03281450070682662
1681238793427685000,3.99368505859375,-0.002249215729534626,-0.01507190428674221,0.012828804552555084,-0.031111735850572586,0.059618350118398666,-0.9977362751960754,0.0007163062691688538,-0.009935606271028519,0.009256720542907715,0.9988938280245937,-0.029298313504979828,-0.016536680771824835,0.032852431270267365
1681238793437662000,4.003661865234375,-0.013640954159200191,-0.006219184026122093,0.011561239138245583,-0.031116344034671783,0.059772931039333344,-0.9977269172668457,0.002262052148580551,-0.014911960810422897,0.012772083282470703,0.9988893003641148,-0.02937446950521394,-0.01654356835896447,0.03292048463783132
1681238793447639000,4.01363916015625,-0.01062492374330759,0.003041692543774843,0.008160915225744247,-0.03106517530977726,0.059986308217048645,-0.9977157115936279,-0.0028550364077091217,-0.015384737402200699,0.01326441764831543,0.9988849187552681,-0.02948132169904357,-0.016522913406713708,0.032966686743392475
1681238793457616000,4.023615966796875,0.00302171241492033,0.0123976431787014,0.008535388857126236,-0.03092156909406185,0.06011660769581795,-0.9977123141288757,-0.00911741703748703,-0.010800071060657501,0.011094272136688232,0.9988826474279598,-0.029548163550128955,-0.016454538916499256,0.033009447992580696
1681238793467592000,4.033592041015625,0.022695282474160194,0.012157425284385681,0.008723407983779907,-0.03074265830218792,0.06009480729699135,-0.9977191686630249,-0.006900697946548462,0.0001317635178565979,0.0024341344833374023,0.9988827984025962,-0.029539389941531984,-0.016366097489800432,0.03305701229185416
1681238793477568800,4.04356884765625,0.035478655248880386,0.0068560317158699036,0.004282154142856598,-0.030614512041211128,0.05985744297504425,-0.9977373480796814,-0.00023868493735790253,0.008883532136678696,-0.0015607476234436035,0.9988862396077322,-0.029422156993832094,-0.016298988254680367,0.03309001134557714
1681238793487545900,4.0535458984375,0.05108397826552391,0.005396086722612381,0.002170800231397152,-0.030542932450771332,0.05946323275566101,-0.9977630972862244,0.004801435396075249,0.010345853865146637,-0.0026640892028808594,0.9988921111639272,-0.02922577251768788,-0.016257056861353272,0.033107052547165894
1681238793497523000,4.06352294921875,0.06191675364971161,0.005992314778268337,0.003236846998333931,-0.03050599992275238,0.058872416615486145,-0.997799277305603,0.003620091825723648,0.010616231709718704,0.0015377402305603027,0.9989006244256448,-0.028930433251507855,-0.01622914609382038,0.033124434624815596
1681238793507500000,4.0735,0.06067119166254997,0.008103135973215103,0.0012799560790881515,-0.03043733350932598,0.058193787932395935,-0.9978411793708801,-0.00033956393599510193,0.008456729352474213,0.006416678428649902,0.9989107621172195,-0.028591768925116133,-0.016183718714827055,0.03313624207074334
1681238793517477000,4.08347705078125,0.05805779993534088,0.009552055038511753,-0.003232853952795267,-0.030341241508722305,0.05750342458486557,-0.9978841543197632,-0.0029075834900140762,0.006675168871879578,0.005040526390075684,0.9989217208273475,-0.028247980201374156,-0.016123876090786155,0.03313049341594724
1681238793527454000,4.093453857421875,0.050447553396224976,0.012431997805833817,0.0004518960486166179,-0.03028356470167637,0.056849587708711624,-0.9979233741760254,-0.006184866651892662,0.0048418231308460236,0.005018711090087891,0.9989317396070007,-0.027921873604425062,-0.016083827259239715,0.033123263823575375
1681238793537431000,4.10343115234375,0.04318351298570633,0.015017660334706306,0.0028601926751434803,-0.030270718038082123,0.056339867413043976,-0.9979526400566101,-0.00564839132130146,-0.000019550323486328125,0.004513978958129883,0.9989388104670288,-0.02766688899603191,-0.016069076506418343,0.03313221982448974
1681238793547408000,4.113407958984375,0.04428792744874954,0.01846991665661335,0.0033337026834487915,-0.030181918293237686,0.055935222655534744,-0.9979780912399292,-0.003982435911893845,-0.0024072639644145966,0.0020216703414916992,0.9989447702968604,-0.02746568749273049,-0.016018185195459677,0.033144032842706124
1681238793557385000,4.123385009765625,0.04371434822678566,0.025398876518011093,0.008889756165444851,-0.02996433526277542,0.0556032769382,-0.9980031847953796,-0.00468829832971096,-0.0025483369827270508,0.003114938735961914,0.998950074717837,-0.027302707690974183,-0.015904568428360834,0.03317260834332116
1681238793567360800,4.13336083984375,0.050797559320926666,0.030890580266714096,0.011655181646347046,-0.029636314138770103,0.05523266643285751,-0.9980335831642151,-0.002269735559821129,-0.0016894452273845673,0.008333265781402588,0.9989559425349047,-0.027121817630190514,-0.015735729538035852,0.033225770641026886
1681238793577337900,4.143337890625,0.06470771133899689,0.03659065067768097,0.010406525805592537,-0.02924899198114872,0.054759472608566284,-0.9980710744857788,-0.0036488790065050125,0.001606617122888565,0.006661832332611084,0.998963723244296,-0.026890687613401087,-0.015535342181179277,0.033273499082572794
